"Prolific_ID","Participant.Device.Type","Trial.Number","Reaction.Time","Response","stimulus","modality"
4813,"computer","1",1299,"3","Cut_jazz_10.mp3","music"
4813,"computer","2",732,"4","Classical_4.mp3","music"
4813,"computer","3",776,"2","Classical_8.mp3","music"
4813,"computer","4",637,"2","Classical_17.mp3","music"
4813,"computer","5",1341,"2","Classical_6.mp3","music"
4813,"computer","6",1297,"5","Classical_7.mp3","music"
4813,"computer","7",1333,"3","Cut_jazz_14.mp3","music"
4813,"computer","8",488,"7","Classical_19.mp3","music"
4813,"computer","9",1309,"4","Cut_jazz_7.mp3","music"
4813,"computer","10",115,"3","Classical_1.mp3","music"
4813,"computer","11",1326,"2","Cut_jazz_16.mp3","music"
4813,"computer","12",815,"2","Classical_18.mp3","music"
4813,"computer","13",1218,"3","Cut_jazz_19.mp3","music"
4813,"computer","14",510,"3","Cut_jazz_5.mp3","music"
4813,"computer","15",638,"2","foil.mp3","music"
4813,"computer","16",1260,"3","Classical_2.mp3","music"
4813,"computer","17",1269,"5","Cut_jazz_1.mp3","music"
4813,"computer","18",1369,"2","Cut_jazz_2.mp3","music"
4813,"computer","19",822,"3","Classical_15.mp3","music"
4868,"computer","1",681,"7","Classical_18.mp3","music"
4868,"computer","2",817,"6","Classical_4.mp3","music"
4868,"computer","3",1373,"1","Cut_jazz_1.mp3","music"
4868,"computer","4",1347,"8","Cut_jazz_7.mp3","music"
4868,"computer","5",559,"5","Classical_17.mp3","music"
4868,"computer","6",646,"6","Cut_jazz_2.mp3","music"
4868,"computer","7",783,"7","Classical_8.mp3","music"
4868,"computer","8",1241,"6","Cut_jazz_14.mp3","music"
4868,"computer","9",661,"2","Cut_jazz_16.mp3","music"
4868,"computer","10",625,"4","Classical_2.mp3","music"
4868,"computer","11",745,"7","Classical_15.mp3","music"
4868,"computer","12",712,"7","Cut_jazz_19.mp3","music"
4868,"computer","13",734,"7","Classical_7.mp3","music"
4868,"computer","14",636,"6","Cut_jazz_10.mp3","music"
4868,"computer","15",813,"5","Cut_jazz_5.mp3","music"
4868,"computer","16",494,"7","Classical_19.mp3","music"
4868,"computer","17",509,"1","Classical_6.mp3","music"
4868,"computer","18",667,"2","foil.mp3","music"
4868,"computer","19",830,"8","Classical_1.mp3","music"
4881,"computer","1",1242,"5","Classical_1.mp3","music"
4881,"computer","2",829,"4","Classical_2.mp3","music"
4881,"computer","3",746,"4","Cut_jazz_1.mp3","music"
4881,"computer","4",621,"5","Classical_19.mp3","music"
4881,"computer","5",620,"9","Cut_jazz_14.mp3","music"
4881,"computer","6",614,"8","Cut_jazz_7.mp3","music"
4881,"computer","7",710,"3","Classical_17.mp3","music"
4881,"computer","8",612,"2","foil.mp3","music"
4881,"computer","9",522,"1","Classical_4.mp3","music"
4881,"computer","10",602,"3","Classical_15.mp3","music"
4881,"computer","11",1236,"5","Classical_18.mp3","music"
4881,"computer","12",655,"2","Classical_6.mp3","music"
4881,"computer","13",1206,"5","Classical_8.mp3","music"
4881,"computer","14",540,"7","Cut_jazz_19.mp3","music"
4881,"computer","15",808,"2","Cut_jazz_10.mp3","music"
4881,"computer","16",656,"2","Cut_jazz_16.mp3","music"
4881,"computer","17",1323,"5","Classical_7.mp3","music"
4881,"computer","18",645,"6","Cut_jazz_2.mp3","music"
4881,"computer","19",490,"3","Cut_jazz_5.mp3","music"
4828,"computer","1",806,"5","Classical_4.mp3","music"
4828,"computer","2",582,"6","Cut_jazz_16.mp3","music"
4828,"computer","3",587,"6","Cut_jazz_5.mp3","music"
4828,"computer","4",728,"5","Cut_jazz_10.mp3","music"
4828,"computer","5",651,"4","Classical_6.mp3","music"
4828,"computer","6",627,"6","Classical_8.mp3","music"
4828,"computer","7",833,"6","foil.mp3","music"
4828,"computer","8",1217,"5","Cut_jazz_19.mp3","music"
4828,"computer","9",778,"6","Classical_7.mp3","music"
4828,"computer","10",744,"5","Cut_jazz_2.mp3","music"
4828,"computer","11",616,"5","Classical_15.mp3","music"
4828,"computer","12",752,"5","Classical_19.mp3","music"
4828,"computer","13",610,"5","Classical_18.mp3","music"
4828,"computer","14",619,"6","Cut_jazz_7.mp3","music"
4828,"computer","15",755,"6","Classical_1.mp3","music"
4828,"computer","16",774,"5","Classical_2.mp3","music"
4828,"computer","17",685,"4","Classical_17.mp3","music"
4828,"computer","18",717,"5","Cut_jazz_1.mp3","music"
4828,"computer","19",766,"5","Cut_jazz_14.mp3","music"
4753,"computer","1",131,"7","Classical_17.mp3","music"
4753,"computer","2",121,"4","Classical_6.mp3","music"
4753,"computer","3",512,"5","Classical_18.mp3","music"
4753,"computer","4",103,"2","Cut_jazz_16.mp3","music"
4753,"computer","5",757,"7","Classical_7.mp3","music"
4753,"computer","6",563,"3","Classical_4.mp3","music"
4753,"computer","7",1366,"2","foil.mp3","music"
4753,"computer","8",725,"8","Classical_15.mp3","music"
4753,"computer","9",1363,"9","Classical_19.mp3","music"
4753,"computer","10",134,"9","Cut_jazz_14.mp3","music"
4753,"computer","11",1293,"9","Cut_jazz_2.mp3","music"
4753,"computer","12",1304,"9","Classical_1.mp3","music"
4753,"computer","13",1268,"9","Cut_jazz_7.mp3","music"
4753,"computer","14",605,"7","Classical_2.mp3","music"
4753,"computer","15",592,"6","Cut_jazz_19.mp3","music"
4753,"computer","16",650,"5","Classical_8.mp3","music"
4753,"computer","17",640,"4","Cut_jazz_1.mp3","music"
4753,"computer","18",543,"1","Cut_jazz_10.mp3","music"
4753,"computer","19",617,"3","Cut_jazz_5.mp3","music"
4870,"computer","1",837,"4","Cut_jazz_7.mp3","music"
4870,"computer","2",782,"5","Classical_6.mp3","music"
4870,"computer","3",1288,"6","Classical_18.mp3","music"
4870,"computer","4",779,"5","Cut_jazz_14.mp3","music"
4870,"computer","5",1319,"3","Cut_jazz_5.mp3","music"
4870,"computer","6",1336,"3","Classical_4.mp3","music"
4870,"computer","7",569,"8","Classical_7.mp3","music"
4870,"computer","8",801,"6","Cut_jazz_2.mp3","music"
4870,"computer","9",742,"4","Classical_15.mp3","music"
4870,"computer","10",557,"6","Classical_1.mp3","music"
4870,"computer","11",799,"8","Classical_19.mp3","music"
4870,"computer","12",753,"4","Classical_8.mp3","music"
4870,"computer","13",784,"5","Classical_2.mp3","music"
4870,"computer","14",764,"4","Cut_jazz_19.mp3","music"
4870,"computer","15",1256,"3","Cut_jazz_10.mp3","music"
4870,"computer","16",105,"2","Cut_jazz_16.mp3","music"
4870,"computer","17",765,"4","Cut_jazz_1.mp3","music"
4870,"computer","18",1353,"2","foil.mp3","music"
4870,"computer","19",1211,"4","Classical_17.mp3","music"
4823,"computer","1",609,"3","Cut_jazz_5.mp3","music"
4823,"computer","2",571,"2","Classical_15.mp3","music"
4823,"computer","3",1329,"5","Classical_2.mp3","music"
4823,"computer","4",118,"8","Cut_jazz_7.mp3","music"
4823,"computer","5",542,"5","Cut_jazz_1.mp3","music"
4823,"computer","6",1278,"7","Classical_7.mp3","music"
4823,"computer","7",662,"8","Classical_18.mp3","music"
4823,"computer","8",707,"6","Classical_1.mp3","music"
4823,"computer","9",111,"8","Classical_19.mp3","music"
4823,"computer","10",514,"3","Classical_6.mp3","music"
4823,"computer","11",577,"4","Classical_17.mp3","music"
4823,"computer","12",529,"8","Cut_jazz_2.mp3","music"
4823,"computer","13",122,"6","Classical_8.mp3","music"
4823,"computer","14",532,"2","foil.mp3","music"
4823,"computer","15",1361,"8","Cut_jazz_19.mp3","music"
4823,"computer","16",106,"5","Cut_jazz_10.mp3","music"
4823,"computer","17",123,"7","Cut_jazz_16.mp3","music"
4823,"computer","18",1339,"3","Classical_4.mp3","music"
4823,"computer","19",1322,"8","Cut_jazz_14.mp3","music"
4849,"computer","1",129,"2","Classical_2.mp3","music"
4849,"computer","2",760,"2","foil.mp3","music"
4849,"computer","3",798,"3","Cut_jazz_7.mp3","music"
4849,"computer","4",729,"1","Cut_jazz_5.mp3","music"
4849,"computer","5",634,"2","Cut_jazz_19.mp3","music"
4849,"computer","6",1251,"2","Classical_6.mp3","music"
4849,"computer","7",715,"7","Classical_1.mp3","music"
4849,"computer","8",770,"4","Classical_4.mp3","music"
4849,"computer","9",613,"5","Classical_17.mp3","music"
4849,"computer","10",1332,"3","Cut_jazz_14.mp3","music"
4849,"computer","11",126,"8","Classical_19.mp3","music"
4849,"computer","12",1261,"1","Cut_jazz_10.mp3","music"
4849,"computer","13",718,"2","Cut_jazz_2.mp3","music"
4849,"computer","14",675,"8","Classical_15.mp3","music"
4849,"computer","15",1314,"9","Classical_7.mp3","music"
4849,"computer","16",516,"9","Classical_8.mp3","music"
4849,"computer","17",599,"6","Classical_18.mp3","music"
4849,"computer","18",1307,"1","Cut_jazz_16.mp3","music"
4849,"computer","19",1258,"1","Cut_jazz_1.mp3","music"
4799,"computer","1",772,"7","Classical_8.mp3","music"
4799,"computer","2",1331,"4","Classical_15.mp3","music"
4799,"computer","3",670,"5","Classical_6.mp3","music"
4799,"computer","4",1292,"8","Cut_jazz_2.mp3","music"
4799,"computer","5",608,"6","Cut_jazz_1.mp3","music"
4799,"computer","6",109,"2","foil.mp3","music"
4799,"computer","7",576,"6","Cut_jazz_19.mp3","music"
4799,"computer","8",1281,"1","Classical_4.mp3","music"
4799,"computer","9",1340,"4","Cut_jazz_5.mp3","music"
4799,"computer","10",1287,"5","Cut_jazz_16.mp3","music"
4799,"computer","11",1221,"9","Classical_19.mp3","music"
4799,"computer","12",513,"7","Cut_jazz_14.mp3","music"
4799,"computer","13",1280,"4","Cut_jazz_10.mp3","music"
4799,"computer","14",622,"5","Classical_2.mp3","music"
4799,"computer","15",1356,"7","Classical_7.mp3","music"
4799,"computer","16",1284,"9","Classical_1.mp3","music"
4799,"computer","17",558,"6","Classical_18.mp3","music"
4799,"computer","18",1235,"8","Classical_17.mp3","music"
4799,"computer","19",1267,"8","Cut_jazz_7.mp3","music"
4851,"computer","1",835,"6","Classical_7.mp3","music"
4851,"computer","2",716,"2","foil.mp3","music"
4851,"computer","3",1248,"2","Classical_6.mp3","music"
4851,"computer","4",665,"2","Cut_jazz_5.mp3","music"
4851,"computer","5",626,"6","Classical_8.mp3","music"
4851,"computer","6",749,"7","Cut_jazz_2.mp3","music"
4851,"computer","7",124,"9","Classical_19.mp3","music"
4851,"computer","8",1325,"5","Classical_1.mp3","music"
4851,"computer","9",819,"4","Classical_15.mp3","music"
4851,"computer","10",561,"5","Classical_2.mp3","music"
4851,"computer","11",642,"3","Classical_18.mp3","music"
4851,"computer","12",1348,"7","Cut_jazz_19.mp3","music"
4851,"computer","13",500,"3","Classical_17.mp3","music"
4851,"computer","14",578,"1","Classical_4.mp3","music"
4851,"computer","15",1308,"4","Cut_jazz_7.mp3","music"
4851,"computer","16",606,"3","Cut_jazz_16.mp3","music"
4851,"computer","17",496,"3","Cut_jazz_10.mp3","music"
4851,"computer","18",521,"1","Cut_jazz_1.mp3","music"
4851,"computer","19",708,"6","Cut_jazz_14.mp3","music"
4869,"computer","1",107,"2","Cut_jazz_5.mp3","music"
4869,"computer","2",526,"3","Cut_jazz_16.mp3","music"
4869,"computer","3",1264,"3","Cut_jazz_7.mp3","music"
4869,"computer","4",723,"2","Classical_2.mp3","music"
4869,"computer","5",503,"4","Cut_jazz_19.mp3","music"
4869,"computer","6",1344,"1","Cut_jazz_10.mp3","music"
4869,"computer","7",678,"2","foil.mp3","music"
4869,"computer","8",1229,"1","Classical_6.mp3","music"
4869,"computer","9",761,"3","Classical_17.mp3","music"
4869,"computer","10",130,"6","Classical_19.mp3","music"
4869,"computer","11",1317,"3","Classical_8.mp3","music"
4869,"computer","12",585,"4","Classical_18.mp3","music"
4869,"computer","13",1298,"4","Classical_1.mp3","music"
4869,"computer","14",1219,"2","Classical_4.mp3","music"
4869,"computer","15",593,"4","Cut_jazz_1.mp3","music"
4869,"computer","16",802,"3","Classical_15.mp3","music"
4869,"computer","17",1337,"4","Cut_jazz_2.mp3","music"
4869,"computer","18",687,"5","Cut_jazz_14.mp3","music"
4869,"computer","19",570,"3","Classical_7.mp3","music"
4793,"computer","1",550,"1","Classical_6.mp3","music"
4793,"computer","2",630,"2","foil.mp3","music"
4793,"computer","3",664,"1","Classical_1.mp3","music"
4793,"computer","4",534,"7","Cut_jazz_14.mp3","music"
4793,"computer","5",804,"5","Classical_7.mp3","music"
4793,"computer","6",1270,"1","Classical_4.mp3","music"
4793,"computer","7",1376,"9","Cut_jazz_7.mp3","music"
4793,"computer","8",114,"1","Cut_jazz_5.mp3","music"
4793,"computer","9",1311,"3","Cut_jazz_1.mp3","music"
4793,"computer","10",1274,"2","Classical_2.mp3","music"
4793,"computer","11",1238,"3","Classical_8.mp3","music"
4793,"computer","12",101,"2","Cut_jazz_16.mp3","music"
4793,"computer","13",1285,"2","Classical_15.mp3","music"
4793,"computer","14",1239,"1","Classical_19.mp3","music"
4793,"computer","15",575,"7","Cut_jazz_2.mp3","music"
4793,"computer","16",730,"3","Cut_jazz_10.mp3","music"
4793,"computer","17",1244,"3","Classical_18.mp3","music"
4793,"computer","18",711,"8","Cut_jazz_19.mp3","music"
4793,"computer","19",517,"1","Classical_17.mp3","music"
4779,"computer","1",814,"6","Cut_jazz_1.mp3","music"
4779,"computer","2",498,"7","Classical_1.mp3","music"
4779,"computer","3",495,"6","Cut_jazz_14.mp3","music"
4779,"computer","4",1364,"4","Cut_jazz_16.mp3","music"
4779,"computer","5",633,"4","Classical_18.mp3","music"
4779,"computer","6",136,"5","Classical_4.mp3","music"
4779,"computer","7",1313,"5","Cut_jazz_19.mp3","music"
4779,"computer","8",1249,"7","Classical_8.mp3","music"
4779,"computer","9",644,"1","Cut_jazz_10.mp3","music"
4779,"computer","10",1327,"2","foil.mp3","music"
4779,"computer","11",668,"7","Cut_jazz_5.mp3","music"
4779,"computer","12",1342,"8","Cut_jazz_7.mp3","music"
4779,"computer","13",497,"9","Classical_19.mp3","music"
4779,"computer","14",1310,"2","Classical_2.mp3","music"
4779,"computer","15",1355,"1","Classical_6.mp3","music"
4779,"computer","16",1295,"8","Cut_jazz_2.mp3","music"
4779,"computer","17",127,"1","Classical_17.mp3","music"
4779,"computer","18",1367,"7","Classical_7.mp3","music"
4779,"computer","19",567,"4","Classical_15.mp3","music"
4848,"computer","1",1290,"7","Cut_jazz_14.mp3","music"
4848,"computer","2",800,"7","Classical_17.mp3","music"
4848,"computer","3",584,"8","Classical_15.mp3","music"
4848,"computer","4",1227,"7","Classical_4.mp3","music"
4848,"computer","5",528,"9","Cut_jazz_19.mp3","music"
4848,"computer","6",1276,"9","Classical_1.mp3","music"
4848,"computer","7",1286,"9","Classical_19.mp3","music"
4848,"computer","8",812,"8","Cut_jazz_7.mp3","music"
4848,"computer","9",507,"9","Classical_18.mp3","music"
4848,"computer","10",117,"9","Classical_8.mp3","music"
4848,"computer","11",132,"9","Classical_2.mp3","music"
4848,"computer","12",775,"7","Classical_6.mp3","music"
4848,"computer","13",531,"9","Classical_7.mp3","music"
4848,"computer","14",545,"1","Cut_jazz_10.mp3","music"
4848,"computer","15",763,"8","Cut_jazz_5.mp3","music"
4848,"computer","16",1352,"8","Cut_jazz_2.mp3","music"
4848,"computer","17",581,"5","Cut_jazz_1.mp3","music"
4848,"computer","18",589,"7","Cut_jazz_16.mp3","music"
4848,"computer","19",823,"2","foil.mp3","music"
4767,"computer","1",648,"2","Cut_jazz_16.mp3","music"
4767,"computer","2",502,"6","Classical_7.mp3","music"
4767,"computer","3",518,"8","Cut_jazz_1.mp3","music"
4767,"computer","4",624,"4","Classical_17.mp3","music"
4767,"computer","5",519,"6","Classical_19.mp3","music"
4767,"computer","6",1302,"6","Classical_15.mp3","music"
4767,"computer","7",1266,"2","Cut_jazz_5.mp3","music"
4767,"computer","8",1209,"3","Cut_jazz_14.mp3","music"
4767,"computer","9",1279,"5","Classical_4.mp3","music"
4767,"computer","10",511,"4","Classical_2.mp3","music"
4767,"computer","11",1368,"8","Classical_8.mp3","music"
4767,"computer","12",1272,"2","Cut_jazz_10.mp3","music"
4767,"computer","13",527,"6","Classical_1.mp3","music"
4767,"computer","14",1282,"1","foil.mp3","music"
4767,"computer","15",1318,"2","Cut_jazz_7.mp3","music"
4767,"computer","16",1223,"2","Cut_jazz_19.mp3","music"
4767,"computer","17",594,"3","Classical_6.mp3","music"
4767,"computer","18",547,"3","Cut_jazz_2.mp3","music"
4767,"computer","19",1240,"9","Classical_18.mp3","music"
4746,"computer","1",1346,"1","foil.mp3","music"
4746,"computer","2",1234,"5","Classical_8.mp3","music"
4746,"computer","3",119,"7","Cut_jazz_16.mp3","music"
4746,"computer","4",1321,"5","Cut_jazz_7.mp3","music"
4746,"computer","5",623,"4","Cut_jazz_5.mp3","music"
4746,"computer","6",583,"5","Classical_15.mp3","music"
4746,"computer","7",1354,"9","Cut_jazz_10.mp3","music"
4746,"computer","8",548,"9","Classical_1.mp3","music"
4746,"computer","9",1306,"7","Cut_jazz_19.mp3","music"
4746,"computer","10",741,"5","Classical_18.mp3","music"
4746,"computer","11",1338,"5","Classical_2.mp3","music"
4746,"computer","12",654,"4","Classical_4.mp3","music"
4746,"computer","13",618,"9","Cut_jazz_2.mp3","music"
4746,"computer","14",1316,"7","Cut_jazz_14.mp3","music"
4746,"computer","15",604,"3","Cut_jazz_1.mp3","music"
4746,"computer","16",1359,"5","Classical_19.mp3","music"
4746,"computer","17",1357,"5","Classical_17.mp3","music"
4746,"computer","18",1303,"4","Classical_6.mp3","music"
4746,"computer","19",120,"7","Classical_7.mp3","music"
4871,"computer","1",1208,"8","Classical_1.mp3","music"
4871,"computer","2",188,"8","Classical_8.mp3","music"
4871,"computer","3",580,"6","Classical_2.mp3","music"
4871,"computer","4",1243,"1","Cut_jazz_1.mp3","music"
4871,"computer","5",1377,"9","Cut_jazz_19.mp3","music"
4871,"computer","6",590,"6","Classical_17.mp3","music"
4871,"computer","7",1320,"1","Classical_4.mp3","music"
4871,"computer","8",491,"4","Classical_7.mp3","music"
4871,"computer","9",1360,"1","Cut_jazz_16.mp3","music"
4871,"computer","10",771,"5","Classical_19.mp3","music"
4871,"computer","11",721,"5","Classical_6.mp3","music"
4871,"computer","12",539,"4","Cut_jazz_10.mp3","music"
4871,"computer","13",1213,"3","Cut_jazz_5.mp3","music"
4871,"computer","14",894,"2","foil.mp3","music"
4871,"computer","15",816,"2","Classical_18.mp3","music"
4871,"computer","16",1210,"2","Classical_15.mp3","music"
4871,"computer","17",1349,"8","Cut_jazz_2.mp3","music"
4871,"computer","18",767,"8","Cut_jazz_14.mp3","music"
4871,"computer","19",720,"8","Cut_jazz_7.mp3","music"
4852,"computer","1",628,"5","Classical_8.mp3","music"
4852,"computer","2",515,"7","Classical_19.mp3","music"
4852,"computer","3",538,"7","Cut_jazz_2.mp3","music"
4852,"computer","4",1351,"7","Classical_18.mp3","music"
4852,"computer","5",524,"5","Cut_jazz_16.mp3","music"
4852,"computer","6",1283,"4","Classical_4.mp3","music"
4852,"computer","7",663,"5","Classical_2.mp3","music"
4852,"computer","8",489,"7","Cut_jazz_14.mp3","music"
4852,"computer","9",1335,"3","Cut_jazz_1.mp3","music"
4852,"computer","10",596,"4","Cut_jazz_5.mp3","music"
4852,"computer","11",653,"7","Classical_7.mp3","music"
4852,"computer","12",508,"9","Classical_1.mp3","music"
4852,"computer","13",1324,"7","Cut_jazz_19.mp3","music"
4852,"computer","14",102,"2","foil.mp3","music"
4852,"computer","15",643,"5","Classical_15.mp3","music"
4852,"computer","16",803,"5","Classical_6.mp3","music"
4852,"computer","17",1372,"6","Cut_jazz_7.mp3","music"
4852,"computer","18",657,"4","Classical_17.mp3","music"
4852,"computer","19",537,"2","Cut_jazz_10.mp3","music"
4877,"computer","1",591,"4","Cut_jazz_19.mp3","music"
4877,"computer","2",133,"5","Cut_jazz_7.mp3","music"
4877,"computer","3",1257,"9","Classical_8.mp3","music"
4877,"computer","4",1315,"7","Classical_6.mp3","music"
4877,"computer","5",1350,"4","Classical_18.mp3","music"
4877,"computer","6",660,"1","Cut_jazz_5.mp3","music"
4877,"computer","7",1228,"7","Classical_19.mp3","music"
4877,"computer","8",1330,"8","Classical_2.mp3","music"
4877,"computer","9",632,"8","Classical_15.mp3","music"
4877,"computer","10",493,"2","foil.mp3","music"
4877,"computer","11",807,"6","Classical_1.mp3","music"
4877,"computer","12",677,"5","Cut_jazz_2.mp3","music"
4877,"computer","13",555,"8","Classical_4.mp3","music"
4877,"computer","14",671,"7","Cut_jazz_14.mp3","music"
4877,"computer","15",731,"6","Cut_jazz_16.mp3","music"
4877,"computer","16",535,"4","Cut_jazz_1.mp3","music"
4877,"computer","17",680,"6","Classical_7.mp3","music"
4877,"computer","18",713,"7","Classical_17.mp3","music"
4877,"computer","19",1246,"3","Cut_jazz_10.mp3","music"
4773,"computer","1",658,"3","Classical_4.mp3","music"
4773,"computer","2",1370,"7","Classical_1.mp3","music"
4773,"computer","3",1358,"2","foil.mp3","music"
4773,"computer","4",566,"8","Classical_8.mp3","music"
4773,"computer","5",538,"7","Cut_jazz_2.mp3","music"
4773,"computer","6",108,"5","Classical_2.mp3","music"
4773,"computer","7",659,"3","Classical_17.mp3","music"
4773,"computer","8",615,"6","Cut_jazz_19.mp3","music"
4773,"computer","9",499,"5","Cut_jazz_14.mp3","music"
4773,"computer","10",1301,"3","Classical_6.mp3","music"
4773,"computer","11",1277,"1","Cut_jazz_16.mp3","music"
4773,"computer","12",669,"7","Cut_jazz_7.mp3","music"
4773,"computer","13",573,"6","Cut_jazz_5.mp3","music"
4773,"computer","14",1296,"7","Classical_18.mp3","music"
4773,"computer","15",649,"8","Classical_19.mp3","music"
4773,"computer","16",487,"5","Classical_7.mp3","music"
4773,"computer","17",1271,"1","Cut_jazz_1.mp3","music"
4773,"computer","18",759,"3","Classical_15.mp3","music"
4773,"computer","19",751,"4","Cut_jazz_10.mp3","music"
4878,"computer","1",679,"8","Classical_8.mp3","music"
4878,"computer","2",733,"8","Classical_15.mp3","music"
4878,"computer","3",1328,"5","Cut_jazz_14.mp3","music"
4878,"computer","4",805,"7","Classical_6.mp3","music"
4878,"computer","5",1365,"8","Classical_17.mp3","music"
4878,"computer","6",1375,"9","Classical_19.mp3","music"
4878,"computer","7",709,"3","Cut_jazz_2.mp3","music"
4878,"computer","8",562,"2","foil.mp3","music"
4878,"computer","9",1250,"8","Classical_7.mp3","music"
4878,"computer","10",116,"9","Classical_2.mp3","music"
4878,"computer","11",1237,"2","Cut_jazz_10.mp3","music"
4878,"computer","12",506,"9","Classical_1.mp3","music"
4878,"computer","13",1225,"5","Cut_jazz_1.mp3","music"
4878,"computer","14",758,"5","Cut_jazz_16.mp3","music"
4878,"computer","15",722,"4","Cut_jazz_19.mp3","music"
4878,"computer","16",601,"8","Classical_18.mp3","music"
4878,"computer","17",1371,"7","Classical_4.mp3","music"
4878,"computer","18",836,"5","Cut_jazz_7.mp3","music"
4878,"computer","19",492,"4","Cut_jazz_5.mp3","music"
4783,"computer","1",780,"4","Cut_jazz_10.mp3","music"
4783,"computer","2",112,"7","Classical_17.mp3","music"
4783,"computer","3",666,"9","Classical_1.mp3","music"
4783,"computer","4",827,"4","Cut_jazz_1.mp3","music"
4783,"computer","5",546,"6","Cut_jazz_19.mp3","music"
4783,"computer","6",104,"7","Cut_jazz_14.mp3","music"
4783,"computer","7",525,"2","Cut_jazz_5.mp3","music"
4783,"computer","8",113,"3","Cut_jazz_2.mp3","music"
4783,"computer","9",560,"1","Classical_7.mp3","music"
4783,"computer","10",572,"7","Classical_8.mp3","music"
4783,"computer","11",1263,"3","Classical_2.mp3","music"
4783,"computer","12",1259,"5","Classical_6.mp3","music"
4783,"computer","13",111,"2","foil.mp3","music"
4783,"computer","14",1374,"7","Classical_4.mp3","music"
4783,"computer","15",1343,"6","Classical_18.mp3","music"
4783,"computer","16",811,"3","Classical_19.mp3","music"
4783,"computer","17",533,"8","Cut_jazz_16.mp3","music"
4783,"computer","18",1265,"7","Classical_15.mp3","music"
4783,"computer","19",1273,"6","Cut_jazz_7.mp3","music"
4831,"computer","1",536,"3","Cut_jazz_5.mp3","music"
4831,"computer","2",564,"4","Classical_1.mp3","music"
4831,"computer","3",137,"3","Classical_4.mp3","music"
4831,"computer","4",820,"2","Classical_17.mp3","music"
4831,"computer","5",530,"2","Classical_18.mp3","music"
4831,"computer","6",541,"2","foil.mp3","music"
4831,"computer","7",738,"3","Classical_15.mp3","music"
4831,"computer","8",128,"4","Cut_jazz_10.mp3","music"
4831,"computer","9",194,"9","Cut_jazz_2.mp3","music"
4831,"computer","10",611,"4","Cut_jazz_1.mp3","music"
4831,"computer","11",769,"6","Classical_7.mp3","music"
4831,"computer","12",1362,"6","Cut_jazz_14.mp3","music"
4831,"computer","13",747,"1","Classical_6.mp3","music"
4831,"computer","14",629,"3","Classical_2.mp3","music"
4831,"computer","15",523,"9","Classical_19.mp3","music"
4831,"computer","16",125,"7","Classical_8.mp3","music"
4831,"computer","17",735,"7","Cut_jazz_7.mp3","music"
4831,"computer","18",682,"5","Cut_jazz_19.mp3","music"
4831,"computer","19",504,"2","Cut_jazz_16.mp3","music"
4855,"computer","1",674,"6","Cut_jazz_1.mp3","music"
4855,"computer","2",825,"7","Classical_15.mp3","music"
4855,"computer","3",639,"5","Cut_jazz_7.mp3","music"
4855,"computer","4",673,"6","Cut_jazz_14.mp3","music"
4855,"computer","5",684,"9","Classical_19.mp3","music"
4855,"computer","6",714,"8","Classical_1.mp3","music"
4855,"computer","7",724,"1","Cut_jazz_10.mp3","music"
4855,"computer","8",832,"5","Cut_jazz_5.mp3","music"
4855,"computer","9",818,"6","Classical_4.mp3","music"
4855,"computer","10",1253,"3","foil.mp3","music"
4855,"computer","11",1224,"4","Classical_6.mp3","music"
4855,"computer","12",743,"6","Classical_18.mp3","music"
4855,"computer","13",726,"4","Cut_jazz_16.mp3","music"
4855,"computer","14",781,"5","Classical_2.mp3","music"
4855,"computer","15",676,"5","Cut_jazz_2.mp3","music"
4855,"computer","16",736,"8","Classical_7.mp3","music"
4855,"computer","17",565,"8","Classical_8.mp3","music"
4855,"computer","18",739,"6","Cut_jazz_19.mp3","music"
4855,"computer","19",824,"5","Classical_17.mp3","music"
4828,"computer","1",2455.40000009537,"6","image12.jpg","images"
4828,"computer","2",1549.80000019073,"6","image5.jpg","images"
4828,"computer","3",1353.10000014305,"4","image33.jpg","images"
4828,"computer","4",1615.29999995232,"5","image2.jpg","images"
4828,"computer","5",1372.60000014305,"6","image39.jpg","images"
4828,"computer","6",1813.5,"7","image14.jpg","images"
4828,"computer","7",1787.40000009537,"5","image1.jpg","images"
4828,"computer","8",1582.20000004768,"7","image17.jpg","images"
4828,"computer","9",854.800000190735,"7","image35.jpg","images"
4828,"computer","10",1669.40000009537,"3","image15.jpg","images"
4828,"computer","11",1774.79999995232,"6","image47.jpg","images"
4828,"computer","12",1517.09999990463,"7","image52.jpg","images"
4828,"computer","13",3100.40000009537,"5","image20.jpg","images"
4828,"computer","14",1775.90000009537,"4","image36.jpg","images"
4828,"computer","15",1612,"5","image4.jpg","images"
4828,"computer","16",1231.5,"5","image10.jpg","images"
4828,"computer","17",1934.90000009537,"7","image3.jpg","images"
4828,"computer","18",2491.19999980927,"3","image34.jpg","images"
4799,"computer","1",1082.59999999404,"2","image33.jpg","images"
4799,"computer","2",988,"2","image4.jpg","images"
4799,"computer","3",895.100000008941,"1","image35.jpg","images"
4799,"computer","4",1026.79999999702,"3","image1.jpg","images"
4799,"computer","5",814.5,"6","image12.jpg","images"
4799,"computer","6",769.70000000298,"7","image14.jpg","images"
4799,"computer","7",744.5,"7","image5.jpg","images"
4799,"computer","8",640.59999999404,"1","image34.jpg","images"
4799,"computer","9",767,"6","image20.jpg","images"
4799,"computer","10",1709.09999999404,"5","image36.jpg","images"
4799,"computer","11",1518.29999999702,"6","image3.jpg","images"
4799,"computer","12",1062.39999999106,"3","image47.jpg","images"
4799,"computer","13",1195.89999999106,"5","image10.jpg","images"
4799,"computer","14",1235.79999999702,"5","image39.jpg","images"
4799,"computer","15",2109.79999999702,"6","image2.jpg","images"
4799,"computer","16",711.29999999702,"5","image52.jpg","images"
4799,"computer","17",1026.40000000596,"7","image17.jpg","images"
4799,"computer","18",785.90000000596,"2","image15.jpg","images"
4831,"computer","1",1472.79999999702,"4","image5.jpg","images"
4831,"computer","2",1139.5,"4","image14.jpg","images"
4831,"computer","3",868,"3","image33.jpg","images"
4831,"computer","4",622,"5","image17.jpg","images"
4831,"computer","5",496.199999999255,"7","image12.jpg","images"
4831,"computer","6",566.20000000298,"7","image36.jpg","images"
4831,"computer","7",415.5,"6","image4.jpg","images"
4831,"computer","8",507.699999999255,"9","image2.jpg","images"
4831,"computer","9",671.599999997765,"9","image35.jpg","images"
4831,"computer","10",975.800000000745,"2","image34.jpg","images"
4831,"computer","11",509.400000002235,"3","image10.jpg","images"
4831,"computer","12",1124.90000000224,"8","image20.jpg","images"
4831,"computer","13",2485.19999999925,"1","image15.jpg","images"
4831,"computer","14",1186,"8","image39.jpg","images"
4831,"computer","15",1336.19999999925,"5","image47.jpg","images"
4831,"computer","16",906.39999999851,"4","image1.jpg","images"
4831,"computer","17",1719,"6","image52.jpg","images"
4831,"computer","18",611.300000000745,"6","image3.jpg","images"
4823,"computer","1",1433,"2","image47.jpg","images"
4823,"computer","2",1353,"1","image1.jpg","images"
4823,"computer","3",1480.5,"5","image12.jpg","images"
4823,"computer","4",904.39999999851,"1","image34.jpg","images"
4823,"computer","5",946.29999999702,"6","image5.jpg","images"
4823,"computer","6",941.19999999553,"3","image35.jpg","images"
4823,"computer","7",843.60000000149,"5","image2.jpg","images"
4823,"computer","8",1164.5,"4","image4.jpg","images"
4823,"computer","9",1854,"5","image10.jpg","images"
4823,"computer","10",1325.60000000149,"5","image3.jpg","images"
4823,"computer","11",1173.29999999702,"2","image52.jpg","images"
4823,"computer","12",1135.39999999851,"7","image17.jpg","images"
4823,"computer","13",1180,"3","image33.jpg","images"
4823,"computer","14",1424.89999999851,"7","image14.jpg","images"
4823,"computer","15",1298,"7","image20.jpg","images"
4823,"computer","16",804.29999999702,"5","image36.jpg","images"
4823,"computer","17",1279,"4","image39.jpg","images"
4823,"computer","18",921.10000000149,"1","image15.jpg","images"
4753,"computer","1",1288.10000002384,"7","image4.jpg","images"
4753,"computer","2",735.699999928474,"9","image14.jpg","images"
4753,"computer","3",675.400000095367,"5","image36.jpg","images"
4753,"computer","4",974,"1","image15.jpg","images"
4753,"computer","5",610.600000023842,"1","image34.jpg","images"
4753,"computer","6",1631.40000009537,"8","image17.jpg","images"
4753,"computer","7",848.700000047684,"9","image12.jpg","images"
4753,"computer","8",1289.09999990463,"7","image10.jpg","images"
4753,"computer","9",858.800000071526,"6","image5.jpg","images"
4753,"computer","10",574.5,"8","image2.jpg","images"
4753,"computer","11",1222.5,"5","image1.jpg","images"
4753,"computer","12",797.300000071526,"9","image39.jpg","images"
4753,"computer","13",822.100000023842,"7","image52.jpg","images"
4753,"computer","14",1017.5,"3","image47.jpg","images"
4753,"computer","15",748.799999952316,"2","image33.jpg","images"
4753,"computer","16",542.699999928474,"2","image35.jpg","images"
4753,"computer","17",1138.59999990463,"8","image20.jpg","images"
4753,"computer","18",1273.30000007153,"9","image3.jpg","images"
4849,"computer","1",1296,"2","image36.jpg","images"
4849,"computer","2",1751.7000002861,"7","image39.jpg","images"
4849,"computer","3",1402.2999997139,"1","image4.jpg","images"
4849,"computer","4",804.299999713898,"1","image47.jpg","images"
4849,"computer","5",1090,"9","image17.jpg","images"
4849,"computer","6",739.700000286102,"9","image14.jpg","images"
4849,"computer","7",1690.5,"6","image5.jpg","images"
4849,"computer","8",1800.10000038147,"3","image1.jpg","images"
4849,"computer","9",1731.90000009537,"1","image33.jpg","images"
4849,"computer","10",3464.7000002861,"2","image10.jpg","images"
4849,"computer","11",1167.30000019073,"6","image2.jpg","images"
4849,"computer","12",824.300000190735,"7","image20.jpg","images"
4849,"computer","13",1202.90000009537,"1","image34.jpg","images"
4849,"computer","14",1538.90000009537,"8","image3.jpg","images"
4849,"computer","15",1440.69999980927,"1","image15.jpg","images"
4849,"computer","16",745,"3","image52.jpg","images"
4849,"computer","17",1575.80000019073,"7","image12.jpg","images"
4849,"computer","18",948.800000190735,"1","image35.jpg","images"
4851,"computer","1",1907.79999999981,"3","image15.jpg","images"
4851,"computer","2",4323.29999999981,"3","image34.jpg","images"
4851,"computer","3",3778.59999999963,"4","image14.jpg","images"
4851,"computer","4",1685.29999999981,"2","image33.jpg","images"
4851,"computer","5",910.100000000559,"2","image36.jpg","images"
4851,"computer","6",939.299999999814,"1","image35.jpg","images"
4851,"computer","7",4502.30000000075,"3","image10.jpg","images"
4851,"computer","8",1307.90000000037,"6","image2.jpg","images"
4851,"computer","9",777.299999999814,"5","image20.jpg","images"
4851,"computer","10",6309.90000000037,"4","image3.jpg","images"
4851,"computer","11",1689.20000000019,"6","image12.jpg","images"
4851,"computer","12",1104.89999999944,"3","image47.jpg","images"
4851,"computer","13",1988.79999999981,"6","image52.jpg","images"
4851,"computer","14",1260.60000000056,"9","image39.jpg","images"
4851,"computer","15",1084.79999999981,"9","image5.jpg","images"
4851,"computer","16",899.200000000186,"7","image4.jpg","images"
4851,"computer","17",1486.60000000056,"2","image1.jpg","images"
4851,"computer","18",2775.10000000056,"5","image17.jpg","images"
4869,"computer","1",3888.19999999925,"1","image4.jpg","images"
4869,"computer","2",965.400000000373,"4","image12.jpg","images"
4869,"computer","3",1065.40000000037,"2","image47.jpg","images"
4869,"computer","4",1228.40000000037,"4","image5.jpg","images"
4869,"computer","5",884.300000000745,"4","image20.jpg","images"
4869,"computer","6",749.099999999627,"2","image34.jpg","images"
4869,"computer","7",2948.70000000112,"2","image1.jpg","images"
4869,"computer","8",1215.30000000075,"3","image33.jpg","images"
4869,"computer","9",594.400000000373,"3","image2.jpg","images"
4869,"computer","10",751.700000001118,"2","image15.jpg","images"
4869,"computer","11",3119.30000000075,"4","image39.jpg","images"
4869,"computer","12",948.60000000149,"5","image17.jpg","images"
4869,"computer","13",393.199999999255,"4","image52.jpg","images"
4869,"computer","14",653.699999999255,"3","image35.jpg","images"
4869,"computer","15",886.200000001118,"1","image10.jpg","images"
4869,"computer","16",3394.40000000037,"2","image36.jpg","images"
4869,"computer","17",1085.90000000037,"5","image3.jpg","images"
4869,"computer","18",408.199999999255,"5","image14.jpg","images"
4793,"computer","1",1499.29999995232,"4","image3.jpg","images"
4793,"computer","2",1061.30000019073,"7","image5.jpg","images"
4793,"computer","3",1830.30000019073,"3","image1.jpg","images"
4793,"computer","4",1022.5,"5","image17.jpg","images"
4793,"computer","5",1272.19999980927,"1","image35.jpg","images"
4793,"computer","6",1319.79999995232,"9","image39.jpg","images"
4793,"computer","7",1279.30000019073,"3","image2.jpg","images"
4793,"computer","8",1172.20000004768,"2","image47.jpg","images"
4793,"computer","9",1062.39999985695,"7","image52.jpg","images"
4793,"computer","10",485.5,"7","image14.jpg","images"
4793,"computer","11",1165.40000009537,"1","image15.jpg","images"
4793,"computer","12",1283.40000009537,"3","image4.jpg","images"
4793,"computer","13",811.100000143051,"1","image36.jpg","images"
4793,"computer","14",629.5,"2","image33.jpg","images"
4793,"computer","15",579.599999904633,"1","image34.jpg","images"
4793,"computer","16",610.200000047684,"1","image12.jpg","images"
4793,"computer","17",1297.39999985695,"8","image20.jpg","images"
4793,"computer","18",1269.59999990463,"2","image10.jpg","images"
4779,"computer","1",1355.5,"4","image14.jpg","images"
4779,"computer","2",898.299999952316,"5","image17.jpg","images"
4779,"computer","3",884.100000023842,"7","image2.jpg","images"
4779,"computer","4",1051,"7","image39.jpg","images"
4779,"computer","5",696.899999976158,"3","image36.jpg","images"
4779,"computer","6",783,"4","image5.jpg","images"
4779,"computer","7",726.699999928474,"6","image20.jpg","images"
4779,"computer","8",827.299999952316,"4","image3.jpg","images"
4779,"computer","9",745.100000023842,"1","image10.jpg","images"
4779,"computer","10",757.599999904633,"2","image4.jpg","images"
4779,"computer","11",1329.20000004768,"1","image15.jpg","images"
4779,"computer","12",858.199999928474,"1","image35.jpg","images"
4779,"computer","13",938.399999976158,"3","image33.jpg","images"
4779,"computer","14",1074.59999990463,"5","image12.jpg","images"
4779,"computer","15",798.600000023842,"1","image1.jpg","images"
4779,"computer","16",847.100000023842,"4","image52.jpg","images"
4779,"computer","17",933.700000047684,"1","image47.jpg","images"
4779,"computer","18",656.5,"1","image34.jpg","images"
4848,"computer","1",2116,"8","image12.jpg","images"
4848,"computer","2",1354.80000001192,"5","image4.jpg","images"
4848,"computer","3",1516,"7","image39.jpg","images"
4848,"computer","4",2044.59999996424,"9","image14.jpg","images"
4848,"computer","5",1200.90000003576,"7","image33.jpg","images"
4848,"computer","6",1419.59999996424,"5","image20.jpg","images"
4848,"computer","7",1047.59999996424,"9","image35.jpg","images"
4848,"computer","8",1551,"5","image52.jpg","images"
4848,"computer","9",787.399999976158,"5","image1.jpg","images"
4848,"computer","10",2001.19999998808,"8","image2.jpg","images"
4848,"computer","11",1520.20000004768,"1","image15.jpg","images"
4848,"computer","12",1719.30000001192,"3","image36.jpg","images"
4848,"computer","13",874.100000023842,"3","image10.jpg","images"
4848,"computer","14",1470.30000001192,"9","image17.jpg","images"
4848,"computer","15",1467.19999998808,"8","image47.jpg","images"
4848,"computer","16",1362.5,"9","image3.jpg","images"
4848,"computer","17",1674.10000002384,"1","image34.jpg","images"
4848,"computer","18",1341.30000001192,"9","image5.jpg","images"
4855,"computer","1",3156.59999996424,"2","image47.jpg","images"
4855,"computer","2",2226.69999998808,"4","image36.jpg","images"
4855,"computer","3",1648.19999998808,"6","image52.jpg","images"
4855,"computer","4",1573.40000003576,"5","image14.jpg","images"
4855,"computer","5",1456.90000003576,"3","image15.jpg","images"
4855,"computer","6",1378.60000002384,"4","image12.jpg","images"
4855,"computer","7",2079.5,"3","image4.jpg","images"
4855,"computer","8",3023,"7","image17.jpg","images"
4855,"computer","9",2182.79999995232,"4","image1.jpg","images"
4855,"computer","10",1334.80000001192,"3","image35.jpg","images"
4855,"computer","11",2239.39999997616,"2","image34.jpg","images"
4855,"computer","12",1583.19999998808,"6","image5.jpg","images"
4855,"computer","13",2667.39999997616,"3","image33.jpg","images"
4855,"computer","14",2058.19999998808,"6","image39.jpg","images"
4855,"computer","15",1625.19999998808,"5","image2.jpg","images"
4855,"computer","16",1579.10000002384,"8","image3.jpg","images"
4855,"computer","17",2055.89999997616,"4","image10.jpg","images"
4855,"computer","18",2526.30000001192,"6","image20.jpg","images"
4767,"computer","1",5018.20000000019,"7","image5.jpg","images"
4767,"computer","2",1224.39999999991,"2","image1.jpg","images"
4767,"computer","3",937.399999999907,"9","image2.jpg","images"
4767,"computer","4",770.200000000186,"1","image33.jpg","images"
4767,"computer","5",609,"1","image35.jpg","images"
4767,"computer","6",735.299999999814,"3","image36.jpg","images"
4767,"computer","7",503.700000000186,"4","image10.jpg","images"
4767,"computer","8",610.100000000093,"1","image34.jpg","images"
4767,"computer","9",340.799999999814,"3","image12.jpg","images"
4767,"computer","10",1746.39999999991,"7","image14.jpg","images"
4767,"computer","11",511.700000000186,"7","image39.jpg","images"
4767,"computer","12",1250.69999999972,"3","image52.jpg","images"
4767,"computer","13",1017.70000000019,"6","image3.jpg","images"
4767,"computer","14",1619.80000000028,"2","image4.jpg","images"
4767,"computer","15",397.300000000279,"2","image47.jpg","images"
4767,"computer","16",647.5,"8","image17.jpg","images"
4767,"computer","17",954.200000000186,"1","image15.jpg","images"
4767,"computer","18",861.299999999814,"9","image20.jpg","images"
4746,"computer","1",1465,"5","image17.jpg","images"
4746,"computer","2",836.199999928474,"6","image52.jpg","images"
4746,"computer","3",806.299999952316,"5","image12.jpg","images"
4746,"computer","4",874.5,"6","image2.jpg","images"
4746,"computer","5",927.899999976158,"6","image3.jpg","images"
4746,"computer","6",1033.60000002384,"1","image34.jpg","images"
4746,"computer","7",861.600000023842,"1","image35.jpg","images"
4746,"computer","8",708.399999976158,"1","image33.jpg","images"
4746,"computer","9",944.599999904633,"2","image36.jpg","images"
4746,"computer","10",2202.5,"5","image4.jpg","images"
4746,"computer","11",1025.5,"7","image20.jpg","images"
4746,"computer","12",703.799999952316,"8","image5.jpg","images"
4746,"computer","13",665.199999928474,"1","image15.jpg","images"
4746,"computer","14",832.5,"2","image47.jpg","images"
4746,"computer","15",763,"6","image14.jpg","images"
4746,"computer","16",1213.39999997616,"6","image39.jpg","images"
4746,"computer","17",988.399999976158,"3","image1.jpg","images"
4746,"computer","18",1633.5,"2","image10.jpg","images"
4881,"computer","1",3504.60000002384,"7","image5.jpg","images"
4881,"computer","2",1193.59999990463,"1","image35.jpg","images"
4881,"computer","3",1355.30000007153,"6","image20.jpg","images"
4881,"computer","4",1103.10000002384,"1","image15.jpg","images"
4881,"computer","5",1050.89999997616,"1","image36.jpg","images"
4881,"computer","6",1165.19999992847,"4","image12.jpg","images"
4881,"computer","7",1371.09999990463,"5","image3.jpg","images"
4881,"computer","8",1356.90000009537,"8","image14.jpg","images"
4881,"computer","9",1292.29999995232,"1","image10.jpg","images"
4881,"computer","10",1267.10000002384,"1","image4.jpg","images"
4881,"computer","11",1328.79999995232,"8","image39.jpg","images"
4881,"computer","12",1209.60000002384,"1","image33.jpg","images"
4881,"computer","13",1085.30000007153,"1","image34.jpg","images"
4881,"computer","14",3351.40000009537,"7","image17.jpg","images"
4881,"computer","15",1480.19999992847,"2","image1.jpg","images"
4881,"computer","16",878.799999952316,"2","image2.jpg","images"
4881,"computer","17",866.799999952316,"6","image52.jpg","images"
4881,"computer","18",970.400000095367,"1","image47.jpg","images"
4871,"computer","1",1147.5,"1","image36.jpg","images"
4871,"computer","2",1186.90000000596,"1","image10.jpg","images"
4871,"computer","3",716.90000000596,"1","image47.jpg","images"
4871,"computer","4",699.200000017881,"7","image14.jpg","images"
4871,"computer","5",838.09999999404,"1","image34.jpg","images"
4871,"computer","6",1369.90000000596,"6","image20.jpg","images"
4871,"computer","7",1088.10000002384,"5","image4.jpg","images"
4871,"computer","8",1167.19999998808,"5","image39.jpg","images"
4871,"computer","9",1102.69999998808,"6","image17.jpg","images"
4871,"computer","10",702.600000023842,"9","image35.jpg","images"
4871,"computer","11",710.5,"8","image2.jpg","images"
4871,"computer","12",755,"2","image15.jpg","images"
4871,"computer","13",1207.80000001192,"7","image52.jpg","images"
4871,"computer","14",953.09999999404,"8","image3.jpg","images"
4871,"computer","15",681.5,"1","image1.jpg","images"
4871,"computer","16",936.100000023842,"2","image33.jpg","images"
4871,"computer","17",955.90000000596,"8","image5.jpg","images"
4871,"computer","18",684.40000000596,"4","image12.jpg","images"
4852,"computer","1",1235.20000004768,"9","image17.jpg","images"
4852,"computer","2",1034.69999980927,"2","image10.jpg","images"
4852,"computer","3",982.5,"1","image47.jpg","images"
4852,"computer","4",1273.29999995232,"7","image52.jpg","images"
4852,"computer","5",1474.09999990463,"7","image5.jpg","images"
4852,"computer","6",807.399999856949,"8","image2.jpg","images"
4852,"computer","7",741.399999856949,"8","image12.jpg","images"
4852,"computer","8",752.400000095367,"5","image33.jpg","images"
4852,"computer","9",943.699999809265,"3","image34.jpg","images"
4852,"computer","10",985.400000095367,"1","image15.jpg","images"
4852,"computer","11",625.5,"4","image35.jpg","images"
4852,"computer","12",911,"3","image4.jpg","images"
4852,"computer","13",1200.09999990463,"8","image39.jpg","images"
4852,"computer","14",769.900000095367,"8","image3.jpg","images"
4852,"computer","15",1020.29999995232,"7","image20.jpg","images"
4852,"computer","16",942.200000047684,"6","image36.jpg","images"
4852,"computer","17",805.200000047684,"1","image1.jpg","images"
4852,"computer","18",1199.40000009537,"9","image14.jpg","images"
4877,"computer","1",1192.5,"2","image15.jpg","images"
4877,"computer","2",872.5,"1","image47.jpg","images"
4877,"computer","3",1511.29999999702,"6","image5.jpg","images"
4877,"computer","4",1202.09999999404,"6","image4.jpg","images"
4877,"computer","5",941.70000000298,"7","image52.jpg","images"
4877,"computer","6",537.79999999702,"5","image33.jpg","images"
4877,"computer","7",813.29999999702,"8","image17.jpg","images"
4877,"computer","8",395.79999999702,"7","image2.jpg","images"
4877,"computer","9",732.5,"7","image3.jpg","images"
4877,"computer","10",488.79999999702,"8","image39.jpg","images"
4877,"computer","11",4862.29999999702,"8","image12.jpg","images"
4877,"computer","12",1819.79999999702,"6","image36.jpg","images"
4877,"computer","13",4695.79999999702,"7","image14.jpg","images"
4877,"computer","14",6038.10000000894,"6","image1.jpg","images"
4877,"computer","15",571.29999999702,"3","image10.jpg","images"
4877,"computer","16",5413.60000000894,"7","image34.jpg","images"
4877,"computer","17",807.70000000298,"2","image35.jpg","images"
4877,"computer","18",779.800000011921,"5","image20.jpg","images"
4773,"computer","1",1129,"2","image4.jpg","images"
4773,"computer","2",1064,"7","image20.jpg","images"
4773,"computer","3",804,"2","image1.jpg","images"
4773,"computer","4",702,"1","image10.jpg","images"
4773,"computer","5",950,"6","image3.jpg","images"
4773,"computer","6",832.000000000007,"3","image36.jpg","images"
4773,"computer","7",919.000000000007,"5","image15.jpg","images"
4773,"computer","8",1684,"6","image35.jpg","images"
4773,"computer","9",967,"1","image34.jpg","images"
4773,"computer","10",990,"7","image17.jpg","images"
4773,"computer","11",1163,"7","image52.jpg","images"
4773,"computer","12",734,"8","image14.jpg","images"
4773,"computer","13",664.999999999985,"4","image2.jpg","images"
4773,"computer","14",885.999999999985,"5","image39.jpg","images"
4773,"computer","15",467,"6","image5.jpg","images"
4773,"computer","16",401,"4","image12.jpg","images"
4773,"computer","17",351,"1","image33.jpg","images"
4773,"computer","18",218.000000000015,"2","image47.jpg","images"
4878,"computer","1",2367,"7","image34.jpg","images"
4878,"computer","2",1730.59999999404,"7","image33.jpg","images"
4878,"computer","3",867.40000000596,"9","image2.jpg","images"
4878,"computer","4",804.200000017881,"5","image12.jpg","images"
4878,"computer","5",854.90000000596,"9","image39.jpg","images"
4878,"computer","6",1444.39999997616,"6","image3.jpg","images"
4878,"computer","7",871.5,"6","image1.jpg","images"
4878,"computer","8",1089.09999999404,"7","image17.jpg","images"
4878,"computer","9",802.700000017881,"6","image5.jpg","images"
4878,"computer","10",974.700000017881,"8","image20.jpg","images"
4878,"computer","11",1468.80000001192,"4","image4.jpg","images"
4878,"computer","12",1947.90000000596,"6","image14.jpg","images"
4878,"computer","13",682.40000000596,"8","image10.jpg","images"
4878,"computer","14",1679.59999999404,"3","image15.jpg","images"
4878,"computer","15",1425.39999997616,"9","image36.jpg","images"
4878,"computer","16",600.40000000596,"7","image47.jpg","images"
4878,"computer","17",1363.30000001192,"7","image35.jpg","images"
4878,"computer","18",2595.90000000596,"8","image52.jpg","images"
4783,"computer","1",2480.19999999553,"1","image1.jpg","images"
4783,"computer","2",1270.5,"6","image17.jpg","images"
4783,"computer","3",986.5,"2","image10.jpg","images"
4783,"computer","4",952.5,"7","image3.jpg","images"
4783,"computer","5",976.5,"9","image5.jpg","images"
4783,"computer","6",702.20000000298,"1","image4.jpg","images"
4783,"computer","7",626.39999999851,"4","image2.jpg","images"
4783,"computer","8",1420.89999999851,"1","image34.jpg","images"
4783,"computer","9",6799.20000000298,"3","image20.jpg","images"
4783,"computer","10",738.39999999851,"7","image14.jpg","images"
4783,"computer","11",1076.70000000298,"1","image36.jpg","images"
4783,"computer","12",1331.5,"1","image12.jpg","images"
4783,"computer","13",464.30000000447,"1","image15.jpg","images"
4783,"computer","14",10502.700000003,"1","image35.jpg","images"
4783,"computer","15",745.79999999702,"1","image33.jpg","images"
4783,"computer","16",631.5,"1","image47.jpg","images"
4783,"computer","17",732,"3","image52.jpg","images"
4783,"computer","18",1607.10000000149,"3","image39.jpg","images"
4868,"computer","1",1556.19999999972,"8","image14.jpg","images"
4868,"computer","2",1085.5,"6","image5.jpg","images"
4868,"computer","3",823.900000000373,"9","image2.jpg","images"
4868,"computer","4",928.899999999907,"8","image20.jpg","images"
4868,"computer","5",1513.19999999972,"6","image12.jpg","images"
4868,"computer","6",9338.5,"6","image4.jpg","images"
4868,"computer","7",7816.90000000037,"7","image17.jpg","images"
4868,"computer","8",1293.29999999981,"2","image10.jpg","images"
4868,"computer","9",733.799999999814,"3","image39.jpg","images"
4868,"computer","10",2098.5,"2","image15.jpg","images"
4868,"computer","11",1143.10000000009,"9","image3.jpg","images"
4868,"computer","12",1148.69999999972,"6","image52.jpg","images"
4868,"computer","13",860.700000000186,"8","image35.jpg","images"
4868,"computer","14",2167,"6","image33.jpg","images"
4868,"computer","15",12464.5,"6","image36.jpg","images"
4868,"computer","16",4275.60000000009,"7","image34.jpg","images"
4868,"computer","17",1096.39999999991,"7","image47.jpg","images"
4868,"computer","18",1324,"5","image1.jpg","images"
4813,"computer","1",1690.60000002384,"4","image14.jpg","images"
4813,"computer","2",2399.29999995232,"2","image4.jpg","images"
4813,"computer","3",2194.29999995232,"3","image20.jpg","images"
4813,"computer","4",928,"4","image5.jpg","images"
4813,"computer","5",1010.80000007153,"3","image3.jpg","images"
4813,"computer","6",60.6000000238419,"3","image34.jpg","images"
4813,"computer","7",42.6999999284744,"3","image39.jpg","images"
4813,"computer","8",1233.30000007153,"4","image12.jpg","images"
4813,"computer","9",1209.39999997616,"3","image17.jpg","images"
4813,"computer","10",1495.20000004768,"1","image15.jpg","images"
4813,"computer","11",669.200000047684,"2","image35.jpg","images"
4813,"computer","12",803.899999976158,"2","image47.jpg","images"
4813,"computer","13",1183.5,"2","image52.jpg","images"
4813,"computer","14",2995.10000002384,"2","image2.jpg","images"
4813,"computer","15",571.5,"3","image33.jpg","images"
4813,"computer","16",376.200000047684,"2","image1.jpg","images"
4813,"computer","17",1329.10000002384,"2","image36.jpg","images"
4813,"computer","18",373.100000023842,"2","image10.jpg","images"
4870,"computer","1",1763.90000009537,"5","image1.jpg","images"
4870,"computer","2",1068.10000014305,"6","image20.jpg","images"
4870,"computer","3",1550.19999980927,"6","image12.jpg","images"
4870,"computer","4",842.200000047684,"5","image36.jpg","images"
4870,"computer","5",1119.79999995232,"3","image33.jpg","images"
4870,"computer","6",1366.69999980927,"8","image5.jpg","images"
4870,"computer","7",1303.10000014305,"4","image2.jpg","images"
4870,"computer","8",1025.29999995232,"7","image52.jpg","images"
4870,"computer","9",903.299999952316,"6","image35.jpg","images"
4870,"computer","10",952.299999952316,"8","image39.jpg","images"
4870,"computer","11",1161,"2","image34.jpg","images"
4870,"computer","12",902.900000095367,"3","image3.jpg","images"
4870,"computer","13",1011,"5","image17.jpg","images"
4870,"computer","14",2666.70000004768,"2","image4.jpg","images"
4870,"computer","15",1013.90000009537,"3","image10.jpg","images"
4870,"computer","16",774.799999952316,"6","image47.jpg","images"
4870,"computer","17",1134.20000004768,"4","image15.jpg","images"
4870,"computer","18",757.900000095367,"6","image14.jpg","images"
4862,"computer","1",3037.39999999991,"3","image10.jpg","images"
4862,"computer","2",858.799999999814,"5","image3.jpg","images"
4862,"computer","3",677.5,"7","image12.jpg","images"
4862,"computer","4",702.899999999907,"2","image4.jpg","images"
4862,"computer","5",569.800000000279,"7","image35.jpg","images"
4862,"computer","6",507.399999999907,"9","image47.jpg","images"
4862,"computer","7",478.399999999907,"5","image20.jpg","images"
4862,"computer","8",1144.5,"5","image2.jpg","images"
4862,"computer","9",2405.30000000028,"6","image39.jpg","images"
4862,"computer","10",514.5,"4","image33.jpg","images"
4862,"computer","11",1544.89999999991,"6","image5.jpg","images"
4862,"computer","12",1422.60000000009,"7","image14.jpg","images"
4862,"computer","13",945.400000000373,"5","image15.jpg","images"
4862,"computer","14",686.600000000093,"3","image52.jpg","images"
4862,"computer","15",421.5,"4","image34.jpg","images"
4862,"computer","16",1806.60000000009,"2","image1.jpg","images"
4862,"computer","17",1388.60000000009,"6","image17.jpg","images"
4862,"computer","18",971.100000000093,"3","image36.jpg","images"
4740,"computer","1",1763.40000009537,"6","image1.jpg","images"
4740,"computer","2",1020.19999980927,"7","image3.jpg","images"
4740,"computer","3",732.39999961853,"9","image12.jpg","images"
4740,"computer","4",378,"9","image39.jpg","images"
4740,"computer","5",779.699999809265,"6","image10.jpg","images"
4740,"computer","6",423.599999904633,"7","image20.jpg","images"
4740,"computer","7",419.599999904633,"6","image47.jpg","images"
4740,"computer","8",1638.7999997139,"8","image2.jpg","images"
4740,"computer","9",895,"1","image4.jpg","images"
4740,"computer","10",1316.40000009537,"2","image35.jpg","images"
4740,"computer","11",700.400000095367,"3","image33.jpg","images"
4740,"computer","12",927.299999713898,"6","image14.jpg","images"
4740,"computer","13",1095.2000002861,"3","image15.jpg","images"
4740,"computer","14",858.900000095367,"1","image36.jpg","images"
4740,"computer","15",972.099999904633,"8","image17.jpg","images"
4740,"computer","16",799.400000095367,"1","image34.jpg","images"
4740,"computer","17",2314.59999990463,"7","image5.jpg","images"
4740,"computer","18",623,"5","image52.jpg","images"
4749,"computer","1",1714,"2","image35.jpg","images"
4749,"computer","2",2009,"7","image3.jpg","images"
4749,"computer","3",1139,"9","image5.jpg","images"
4749,"computer","4",2881,"9","image14.jpg","images"
4749,"computer","5",837,"9","image2.jpg","images"
4749,"computer","6",902.000000000007,"5","image47.jpg","images"
4749,"computer","7",1140,"8","image17.jpg","images"
4749,"computer","8",942.000000000007,"9","image20.jpg","images"
4749,"computer","9",1004,"3","image12.jpg","images"
4749,"computer","10",1217,"5","image39.jpg","images"
4749,"computer","11",917,"2","image10.jpg","images"
4749,"computer","12",832,"1","image4.jpg","images"
4749,"computer","13",829,"1","image15.jpg","images"
4749,"computer","14",1063,"9","image52.jpg","images"
4749,"computer","15",1529,"1","image34.jpg","images"
4749,"computer","16",963.000000000015,"5","image1.jpg","images"
4749,"computer","17",1270.99999999999,"1","image36.jpg","images"
4749,"computer","18",1345,"1","image33.jpg","images"
4876,"computer","1",8842,"4","image17.jpg","images"
4876,"computer","2",1255.5,"2","image1.jpg","images"
4876,"computer","3",1841.5,"2","image15.jpg","images"
4876,"computer","4",2910.89999997616,"4","image10.jpg","images"
4876,"computer","5",914,"5","image47.jpg","images"
4876,"computer","6",887.199999928474,"4","image52.jpg","images"
4876,"computer","7",1141.69999992847,"5","image3.jpg","images"
4876,"computer","8",2162,"5","image5.jpg","images"
4876,"computer","9",1622.29999995232,"2","image34.jpg","images"
4876,"computer","10",1062.09999990463,"4","image2.jpg","images"
4876,"computer","11",1315.89999997616,"6","image35.jpg","images"
4876,"computer","12",1920.80000007153,"5","image36.jpg","images"
4876,"computer","13",2684.69999992847,"5","image20.jpg","images"
4876,"computer","14",963.299999952316,"3","image12.jpg","images"
4876,"computer","15",2858.59999990463,"2","image33.jpg","images"
4876,"computer","16",1660.60000002384,"2","image4.jpg","images"
4876,"computer","17",2880.5,"8","image39.jpg","images"
4876,"computer","18",659.399999976158,"6","image14.jpg","images"
4747,"computer","1",1628.89999999851,"1","image35.jpg","images"
4747,"computer","2",756.20000000298,"3","image20.jpg","images"
4747,"computer","3",2072.59999999776,"2","image12.jpg","images"
4747,"computer","4",1076.40000000224,"7","image17.jpg","images"
4747,"computer","5",955.199999999255,"2","image39.jpg","images"
4747,"computer","6",1043.89999999851,"3","image2.jpg","images"
4747,"computer","7",1011.80000000075,"7","image5.jpg","images"
4747,"computer","8",991.400000002235,"1","image36.jpg","images"
4747,"computer","9",853.300000000745,"1","image52.jpg","images"
4747,"computer","10",729.300000000745,"1","image47.jpg","images"
4747,"computer","11",989.800000000745,"1","image15.jpg","images"
4747,"computer","12",1214.60000000149,"4","image4.jpg","images"
4747,"computer","13",536.70000000298,"1","image1.jpg","images"
4747,"computer","14",695,"8","image3.jpg","images"
4747,"computer","15",1037.59999999776,"3","image10.jpg","images"
4747,"computer","16",845.699999999255,"6","image14.jpg","images"
4747,"computer","17",1101.19999999925,"1","image33.jpg","images"
4747,"computer","18",993.20000000298,"1","image34.jpg","images"
4820,"computer","1",2120.59999999776,"3","image33.jpg","images"
4820,"computer","2",2667.89999999851,"7","image14.jpg","images"
4820,"computer","3",7528.59999999776,"3","image52.jpg","images"
4820,"computer","4",2629.10000000149,"6","image20.jpg","images"
4820,"computer","5",2463.30000000075,"3","image4.jpg","images"
4820,"computer","6",7892.39999999851,"6","image1.jpg","images"
4820,"computer","7",5247.5,"4","image36.jpg","images"
4820,"computer","8",1490.89999999851,"7","image47.jpg","images"
4820,"computer","9",7519.10000000149,"6","image2.jpg","images"
4820,"computer","10",21408.1999999993,"6","image15.jpg","images"
4820,"computer","11",22900.8000000007,"4","image3.jpg","images"
4820,"computer","12",10079.1999999993,"4","image12.jpg","images"
4820,"computer","13",4564.19999999925,"6","image39.jpg","images"
4820,"computer","14",5952.09999999776,"3","image35.jpg","images"
4820,"computer","15",2058.09999999776,"7","image34.jpg","images"
4820,"computer","16",10450.8999999985,"4","image10.jpg","images"
4820,"computer","17",2353.5,"6","image17.jpg","images"
4820,"computer","18",2039.19999999925,"6","image5.jpg","images"
4860,"computer","1",2395.69999998808,"7","image14.jpg","images"
4860,"computer","2",1193.69999998808,"3","image1.jpg","images"
4860,"computer","3",1330.90000000596,"4","image20.jpg","images"
4860,"computer","4",442.300000011921,"4","image12.jpg","images"
4860,"computer","5",1087.69999998808,"8","image39.jpg","images"
4860,"computer","6",1662.69999998808,"7","image5.jpg","images"
4860,"computer","7",5385.20000001788,"4","image36.jpg","images"
4860,"computer","8",568.5,"6","image35.jpg","images"
4860,"computer","9",942.199999988079,"4","image33.jpg","images"
4860,"computer","10",796.09999999404,"2","image34.jpg","images"
4860,"computer","11",1026.69999998808,"5","image10.jpg","images"
4860,"computer","12",1033,"3","image52.jpg","images"
4860,"computer","13",2295.09999999404,"7","image3.jpg","images"
4860,"computer","14",1089,"6","image17.jpg","images"
4860,"computer","15",1006.19999998808,"3","image2.jpg","images"
4860,"computer","16",1006.19999998808,"4","image4.jpg","images"
4860,"computer","17",487.59999999404,"4","image47.jpg","images"
4860,"computer","18",872.300000011921,"2","image15.jpg","images"
4802,"computer","1",1224.29999995232,"1","image1.jpg","images"
4802,"computer","2",5173.60000014305,"4","image20.jpg","images"
4802,"computer","3",3013.79999995232,"3","image17.jpg","images"
4802,"computer","4",985.5,"4","image52.jpg","images"
4802,"computer","5",1422.09999990463,"4","image3.jpg","images"
4802,"computer","6",3144.5,"4","image39.jpg","images"
4802,"computer","7",827.599999904633,"2","image14.jpg","images"
4802,"computer","8",735.099999904633,"1","image34.jpg","images"
4802,"computer","9",2897.5,"2","image5.jpg","images"
4802,"computer","10",1353.90000009537,"1","image33.jpg","images"
4802,"computer","11",1587.29999995232,"1","image36.jpg","images"
4802,"computer","12",818.400000095367,"3","image2.jpg","images"
4802,"computer","13",1005.5,"1","image47.jpg","images"
4802,"computer","14",775.400000095367,"1","image10.jpg","images"
4802,"computer","15",995.600000143051,"1","image15.jpg","images"
4802,"computer","16",2004.5,"1","image4.jpg","images"
4802,"computer","17",443,"1","image12.jpg","images"
4802,"computer","18",1262.20000004768,"9","image35.jpg","images"
4758,"computer","1",7042.69999999925,"4","image3.jpg","images"
4758,"computer","2",1139.90000000224,"1","image33.jpg","images"
4758,"computer","3",1242.60000000149,"3","image5.jpg","images"
4758,"computer","4",824.699999999255,"1","image34.jpg","images"
4758,"computer","5",1008.69999999925,"2","image12.jpg","images"
4758,"computer","6",774.5,"1","image35.jpg","images"
4758,"computer","7",651,"1","image4.jpg","images"
4758,"computer","8",883.800000000745,"3","image20.jpg","images"
4758,"computer","9",614.800000000745,"2","image39.jpg","images"
4758,"computer","10",574.400000002235,"1","image1.jpg","images"
4758,"computer","11",1436.90000000224,"2","image14.jpg","images"
4758,"computer","12",745.599999997765,"1","image47.jpg","images"
4758,"computer","13",828.79999999702,"3","image2.jpg","images"
4758,"computer","14",638.400000002235,"1","image36.jpg","images"
4758,"computer","15",1113,"2","image52.jpg","images"
4758,"computer","16",1429.60000000149,"2","image17.jpg","images"
4758,"computer","17",518.300000000745,"1","image15.jpg","images"
4758,"computer","18",882.699999999255,"1","image10.jpg","images"
4882,"computer","1",3598,"3","image33.jpg","images"
4882,"computer","2",831.000000000004,"9","image2.jpg","images"
4882,"computer","3",1860,"3","image15.jpg","images"
4882,"computer","4",1205,"9","image39.jpg","images"
4882,"computer","5",5685,"6","image5.jpg","images"
4882,"computer","6",1590.99999999999,"1","image1.jpg","images"
4882,"computer","7",1928,"4","image17.jpg","images"
4882,"computer","8",1546.00000000001,"2","image47.jpg","images"
4882,"computer","9",1091,"9","image52.jpg","images"
4882,"computer","10",1753,"4","image4.jpg","images"
4882,"computer","11",1481.00000000001,"3","image3.jpg","images"
4882,"computer","12",1999.00000000001,"4","image14.jpg","images"
4882,"computer","13",688,"9","image20.jpg","images"
4882,"computer","14",1902,"5","image35.jpg","images"
4882,"computer","15",1807.99999999999,"5","image12.jpg","images"
4882,"computer","16",1924,"4","image36.jpg","images"
4882,"computer","17",1244,"4","image10.jpg","images"
4882,"computer","18",1672,"1","image34.jpg","images"
4737,"computer","1",3113.10000002384,"7","image39.jpg","images"
4737,"computer","2",1092,"8","image5.jpg","images"
4737,"computer","3",1568.69999998808,"3","image36.jpg","images"
4737,"computer","4",1170.79999995232,"1","image34.jpg","images"
4737,"computer","5",1271.5,"4","image35.jpg","images"
4737,"computer","6",1141.89999997616,"9","image20.jpg","images"
4737,"computer","7",774.700000047684,"8","image3.jpg","images"
4737,"computer","8",716.200000047684,"7","image17.jpg","images"
4737,"computer","9",1051.19999998808,"1","image12.jpg","images"
4737,"computer","10",619.199999988079,"1","image33.jpg","images"
4737,"computer","11",682.300000011921,"2","image1.jpg","images"
4737,"computer","12",1236.5,"6","image52.jpg","images"
4737,"computer","13",1757.60000002384,"5","image47.jpg","images"
4737,"computer","14",1394.30000001192,"9","image14.jpg","images"
4737,"computer","15",1053.19999998808,"1","image10.jpg","images"
4737,"computer","16",616.900000035763,"1","image4.jpg","images"
4737,"computer","17",692.800000011921,"1","image15.jpg","images"
4737,"computer","18",1148,"9","image2.jpg","images"
4755,"computer","1",3599.39999997616,"1","image36.jpg","images"
4755,"computer","2",2253.10000002384,"6","image3.jpg","images"
4755,"computer","3",1149.30000007153,"3","image47.jpg","images"
4755,"computer","4",713.900000095367,"3","image15.jpg","images"
4755,"computer","5",1180.5,"2","image34.jpg","images"
4755,"computer","6",1013.89999997616,"4","image35.jpg","images"
4755,"computer","7",2218.69999992847,"8","image20.jpg","images"
4755,"computer","8",1018.10000002384,"7","image17.jpg","images"
4755,"computer","9",1040,"1","image1.jpg","images"
4755,"computer","10",1115,"9","image5.jpg","images"
4755,"computer","11",1331.70000004768,"7","image12.jpg","images"
4755,"computer","12",1257.40000009537,"8","image52.jpg","images"
4755,"computer","13",1468.69999992847,"6","image2.jpg","images"
4755,"computer","14",1130.89999997616,"1","image10.jpg","images"
4755,"computer","15",768.800000071526,"9","image39.jpg","images"
4755,"computer","16",3327.70000004768,"8","image4.jpg","images"
4755,"computer","17",819.899999976158,"2","image33.jpg","images"
4755,"computer","18",666.600000023842,"8","image14.jpg","images"
4742,"computer","1",1361.40000000596,"3","image34.jpg","images"
4742,"computer","2",675.799999982119,"6","image17.jpg","images"
4742,"computer","3",1030.40000000596,"4","image47.jpg","images"
4742,"computer","4",962.09999999404,"7","image52.jpg","images"
4742,"computer","5",635.59999999404,"7","image20.jpg","images"
4742,"computer","6",1224.10000002384,"6","image14.jpg","images"
4742,"computer","7",1025.29999998212,"4","image15.jpg","images"
4742,"computer","8",961.799999982119,"3","image1.jpg","images"
4742,"computer","9",393.799999982119,"3","image4.jpg","images"
4742,"computer","10",748.09999999404,"5","image2.jpg","images"
4742,"computer","11",987.300000011921,"7","image5.jpg","images"
4742,"computer","12",542.799999982119,"5","image10.jpg","images"
4742,"computer","13",913.90000000596,"2","image36.jpg","images"
4742,"computer","14",845.59999999404,"4","image3.jpg","images"
4742,"computer","15",565.600000023842,"3","image35.jpg","images"
4742,"computer","16",401.199999988079,"5","image39.jpg","images"
4742,"computer","17",315,"5","image12.jpg","images"
4742,"computer","18",512.59999999404,"3","image33.jpg","images"
4739,"computer","1",3043.80000019073,"2","image36.jpg","images"
4739,"computer","2",966.200000762939,"1","image1.jpg","images"
4739,"computer","3",1234.30000019073,"1","image33.jpg","images"
4739,"computer","4",894.800000190735,"1","image10.jpg","images"
4739,"computer","5",10469.8000001907,"1","image35.jpg","images"
4739,"computer","6",5317.80000019073,"1","image4.jpg","images"
4739,"computer","7",1294.10000038147,"3","image2.jpg","images"
4739,"computer","8",1155.30000019073,"6","image17.jpg","images"
4739,"computer","9",1087.10000038147,"1","image34.jpg","images"
4739,"computer","10",1139.19999980927,"3","image39.jpg","images"
4739,"computer","11",1084.9000005722,"3","image3.jpg","images"
4739,"computer","12",635.799999237061,"2","image20.jpg","images"
4739,"computer","13",664.5,"9","image12.jpg","images"
4739,"computer","14",2378.39999961853,"4","image5.jpg","images"
4739,"computer","15",1260.19999980927,"8","image14.jpg","images"
4739,"computer","16",1076.69999980927,"1","image47.jpg","images"
4739,"computer","17",843.699999809265,"1","image15.jpg","images"
4739,"computer","18",999.39999961853,"5","image52.jpg","images"
4736,"computer","1",2692,"3","image14.jpg","images"
4736,"computer","2",941,"5","image5.jpg","images"
4736,"computer","3",945.099999964237,"4","image39.jpg","images"
4736,"computer","4",739.200000047684,"1","image10.jpg","images"
4736,"computer","5",460,"2","image2.jpg","images"
4736,"computer","6",635.700000047684,"6","image17.jpg","images"
4736,"computer","7",1103.40000003576,"4","image47.jpg","images"
4736,"computer","8",817.099999964237,"7","image12.jpg","images"
4736,"computer","9",598.600000023842,"1","image34.jpg","images"
4736,"computer","10",773.199999988079,"1","image1.jpg","images"
4736,"computer","11",650.5,"2","image36.jpg","images"
4736,"computer","12",789.199999988079,"3","image35.jpg","images"
4736,"computer","13",511.5,"1","image33.jpg","images"
4736,"computer","14",704.700000047684,"4","image15.jpg","images"
4736,"computer","15",495.399999976158,"2","image20.jpg","images"
4736,"computer","16",1102.70000004768,"2","image3.jpg","images"
4736,"computer","17",1306.09999996424,"3","image4.jpg","images"
4736,"computer","18",880.600000023842,"3","image52.jpg","images"
4800,"computer","1",3712,"2","image15.jpg","images"
4800,"computer","2",1835.89999997616,"7","image5.jpg","images"
4800,"computer","3",1822.80000001192,"3","image52.jpg","images"
4800,"computer","4",2522.69999998808,"2","image34.jpg","images"
4800,"computer","5",13848,"4","image47.jpg","images"
4800,"computer","6",3106.09999999404,"5","image10.jpg","images"
4800,"computer","7",2355.40000000596,"7","image14.jpg","images"
4800,"computer","8",3703.69999998808,"7","image17.jpg","images"
4800,"computer","9",1336.29999998212,"8","image3.jpg","images"
4800,"computer","10",4764.20000001788,"9","image36.jpg","images"
4800,"computer","11",3113.59999999404,"9","image39.jpg","images"
4800,"computer","12",2700.70000001788,"7","image20.jpg","images"
4800,"computer","13",1379.30000001192,"7","image33.jpg","images"
4800,"computer","14",3830.09999999404,"2","image35.jpg","images"
4800,"computer","15",3393.90000000596,"4","image12.jpg","images"
4800,"computer","16",4473.30000001192,"3","image2.jpg","images"
4800,"computer","17",2020.10000002384,"2","image1.jpg","images"
4800,"computer","18",3468,"2","image4.jpg","images"
4792,"computer","1",981.700000047684,"1","image4.jpg","images"
4792,"computer","2",1174.90000003576,"2","image15.jpg","images"
4792,"computer","3",568,"2","image1.jpg","images"
4792,"computer","4",1293.19999998808,"7","image5.jpg","images"
4792,"computer","5",1047.59999996424,"1","image34.jpg","images"
4792,"computer","6",660.800000011921,"1","image33.jpg","images"
4792,"computer","7",942.099999964237,"8","image52.jpg","images"
4792,"computer","8",1607.69999998808,"3","image12.jpg","images"
4792,"computer","9",652.099999964237,"1","image10.jpg","images"
4792,"computer","10",1042.89999997616,"9","image39.jpg","images"
4792,"computer","11",601.699999988079,"6","image20.jpg","images"
4792,"computer","12",587.900000035763,"1","image14.jpg","images"
4792,"computer","13",750.600000023842,"1","image3.jpg","images"
4792,"computer","14",814.900000035763,"2","image2.jpg","images"
4792,"computer","15",1528.19999998808,"1","image36.jpg","images"
4792,"computer","16",1141.10000002384,"1","image35.jpg","images"
4792,"computer","17",820.199999988079,"2","image47.jpg","images"
4792,"computer","18",778,"2","image17.jpg","images"
4790,"computer","1",3918.39999999851,"6","image36.jpg","images"
4790,"computer","2",1901.29999999702,"7","image52.jpg","images"
4790,"computer","3",1676,"8","image39.jpg","images"
4790,"computer","4",1282.29999999702,"6","image10.jpg","images"
4790,"computer","5",1910.60000000149,"3","image34.jpg","images"
4790,"computer","6",2643.39999999851,"7","image20.jpg","images"
4790,"computer","7",1549.19999999553,"3","image33.jpg","images"
4790,"computer","8",1140.79999999702,"5","image12.jpg","images"
4790,"computer","9",1200.79999999702,"7","image2.jpg","images"
4790,"computer","10",1143.80000000447,"3","image17.jpg","images"
4790,"computer","11",1397.20000000298,"4","image14.jpg","images"
4790,"computer","12",1531.69999999553,"4","image35.jpg","images"
4790,"computer","13",2287.89999999851,"2","image47.jpg","images"
4790,"computer","14",2726.20000000298,"5","image3.jpg","images"
4790,"computer","15",2687.10000000149,"4","image1.jpg","images"
4790,"computer","16",2836.5,"7","image5.jpg","images"
4790,"computer","17",3584.5,"5","image4.jpg","images"
4790,"computer","18",5708.5,"3","image15.jpg","images"
4797,"computer","1",2912.80000007153,"1","image52.jpg","images"
4797,"computer","2",1104.60000002384,"1","image17.jpg","images"
4797,"computer","3",808.700000047684,"1","image1.jpg","images"
4797,"computer","4",699.299999952316,"9","image12.jpg","images"
4797,"computer","5",962.800000071526,"2","image10.jpg","images"
4797,"computer","6",947,"1","image5.jpg","images"
4797,"computer","7",828.399999976158,"1","image35.jpg","images"
4797,"computer","8",600.600000023842,"1","image34.jpg","images"
4797,"computer","9",652.100000023842,"1","image15.jpg","images"
4797,"computer","10",988.899999976158,"9","image39.jpg","images"
4797,"computer","11",587.899999976158,"9","image20.jpg","images"
4797,"computer","12",916.900000095367,"7","image47.jpg","images"
4797,"computer","13",1442.80000007153,"2","image33.jpg","images"
4797,"computer","14",774.100000023842,"5","image3.jpg","images"
4797,"computer","15",922,"1","image4.jpg","images"
4797,"computer","16",936.399999976158,"9","image14.jpg","images"
4797,"computer","17",714.899999976158,"9","image2.jpg","images"
4797,"computer","18",829.299999952316,"1","image36.jpg","images"
4760,"computer","1",3286.29999999702,"4","image47.jpg","images"
4760,"computer","2",1151.80000001192,"3","image17.jpg","images"
4760,"computer","3",1448.40000000596,"1","image33.jpg","images"
4760,"computer","4",2379.79999999702,"1","image1.jpg","images"
4760,"computer","5",3501.29999999702,"1","image36.jpg","images"
4760,"computer","6",2752.59999999404,"1","image12.jpg","images"
4760,"computer","7",1125.70000000298,"4","image5.jpg","images"
4760,"computer","8",1614.90000000596,"2","image3.jpg","images"
4760,"computer","9",1107.80000001192,"1","image4.jpg","images"
4760,"computer","10",1927.59999999404,"2","image39.jpg","images"
4760,"computer","11",994.300000011921,"2","image14.jpg","images"
4760,"computer","12",1320.5,"1","image10.jpg","images"
4760,"computer","13",2599.59999999404,"7","image52.jpg","images"
4760,"computer","14",2529,"3","image20.jpg","images"
4760,"computer","15",2173.40000000596,"4","image2.jpg","images"
4760,"computer","16",1252.70000000298,"1","image34.jpg","images"
4760,"computer","17",2058.5,"3","image35.jpg","images"
4760,"computer","18",984.29999999702,"1","image15.jpg","images"
4763,"computer","1",3915.5,"2","image36.jpg","images"
4763,"computer","2",2027.29999998212,"4","image20.jpg","images"
4763,"computer","3",1358,"3","image15.jpg","images"
4763,"computer","4",935.700000017881,"3","image3.jpg","images"
4763,"computer","5",1524.80000001192,"2","image10.jpg","images"
4763,"computer","6",958.699999988079,"2","image35.jpg","images"
4763,"computer","7",1524.5,"4","image14.jpg","images"
4763,"computer","8",2015.30000001192,"2","image47.jpg","images"
4763,"computer","9",3574,"3","image1.jpg","images"
4763,"computer","10",1019.09999999404,"5","image2.jpg","images"
4763,"computer","11",1635.30000001192,"6","image12.jpg","images"
4763,"computer","12",1260.30000001192,"5","image52.jpg","images"
4763,"computer","13",1878.80000001192,"3","image5.jpg","images"
4763,"computer","14",2063,"5","image17.jpg","images"
4763,"computer","15",1016.60000002384,"3","image39.jpg","images"
4763,"computer","16",1564.70000001788,"2","image33.jpg","images"
4763,"computer","17",1343.70000001788,"2","image34.jpg","images"
4763,"computer","18",2996.80000001192,"4","image4.jpg","images"
4822,"computer","1",2607,"1","image34.jpg","images"
4822,"computer","2",1532,"5","image1.jpg","images"
4822,"computer","3",1157,"9","image20.jpg","images"
4822,"computer","4",1273,"1","image33.jpg","images"
4822,"computer","5",1022,"2","image4.jpg","images"
4822,"computer","6",593,"2","image52.jpg","images"
4822,"computer","7",995.000000000007,"8","image17.jpg","images"
4822,"computer","8",1039.99999999999,"4","image35.jpg","images"
4822,"computer","9",1153,"2","image39.jpg","images"
4822,"computer","10",745.000000000015,"9","image2.jpg","images"
4822,"computer","11",691,"6","image15.jpg","images"
4822,"computer","12",745.000000000015,"8","image14.jpg","images"
4822,"computer","13",748,"5","image12.jpg","images"
4822,"computer","14",840,"7","image36.jpg","images"
4822,"computer","15",860,"8","image47.jpg","images"
4822,"computer","16",652,"1","image10.jpg","images"
4822,"computer","17",1209,"6","image3.jpg","images"
4822,"computer","18",728,"2","image5.jpg","images"
4780,"computer","1",3253,"2","image2.jpg","images"
4780,"computer","2",1207.70000004768,"2","image10.jpg","images"
4780,"computer","3",7749.59999990463,"2","image47.jpg","images"
4780,"computer","4",1305.90000009537,"3","image35.jpg","images"
4780,"computer","5",1959.20000004768,"2","image15.jpg","images"
4780,"computer","6",1356.90000009537,"2","image14.jpg","images"
4780,"computer","7",1209.5,"3","image3.jpg","images"
4780,"computer","8",1178.90000009537,"3","image33.jpg","images"
4780,"computer","9",1445.40000009537,"7","image12.jpg","images"
4780,"computer","10",1189.30000019073,"3","image20.jpg","images"
4780,"computer","11",1286.90000009537,"3","image52.jpg","images"
4780,"computer","12",1177.29999995232,"2","image17.jpg","images"
4780,"computer","13",2082.60000014305,"7","image4.jpg","images"
4780,"computer","14",1697.09999990463,"4","image34.jpg","images"
4780,"computer","15",1127,"3","image36.jpg","images"
4780,"computer","16",3109.40000009537,"7","image5.jpg","images"
4780,"computer","17",1617.70000004768,"2","image39.jpg","images"
4780,"computer","18",2258.69999980927,"3","image1.jpg","images"
4757,"computer","1",1791,"7","image12.jpg","images"
4757,"computer","2",1724,"3","image2.jpg","images"
4757,"computer","3",1049,"1","image34.jpg","images"
4757,"computer","4",1513,"2","image35.jpg","images"
4757,"computer","5",1135,"8","image52.jpg","images"
4757,"computer","6",1268,"3","image3.jpg","images"
4757,"computer","7",808,"1","image33.jpg","images"
4757,"computer","8",860,"5","image36.jpg","images"
4757,"computer","9",914,"6","image5.jpg","images"
4757,"computer","10",677,"1","image15.jpg","images"
4757,"computer","11",1159,"6","image10.jpg","images"
4757,"computer","12",1125,"7","image39.jpg","images"
4757,"computer","13",832,"6","image4.jpg","images"
4757,"computer","14",1126,"3","image47.jpg","images"
4757,"computer","15",980,"4","image14.jpg","images"
4757,"computer","16",1262,"2","image17.jpg","images"
4757,"computer","17",3166.00000000004,"5","image20.jpg","images"
4757,"computer","18",1327,"2","image1.jpg","images"
4757,"computer","1",1889,"6","Cut_jazz_7.mp3","music"
4757,"computer","2",1759,"7","Classical_15.mp3","music"
4757,"computer","3",1937,"5","Classical_18.mp3","music"
4757,"computer","4",2838,"3","Cut_jazz_5.mp3","music"
4757,"computer","5",1189,"8","Cut_jazz_14.mp3","music"
4757,"computer","6",2687.99999999999,"1","foil.mp3","music"
4757,"computer","7",1115,"9","Classical_19.mp3","music"
4757,"computer","8",1226.99999999999,"8","Classical_7.mp3","music"
4757,"computer","9",1330,"9","Classical_8.mp3","music"
4757,"computer","10",576,"9","Classical_1.mp3","music"
4757,"computer","11",1632.99999999999,"7","Cut_jazz_19.mp3","music"
4757,"computer","12",1903,"6","Cut_jazz_1.mp3","music"
4757,"computer","13",1901,"6","Cut_jazz_10.mp3","music"
4757,"computer","14",1350,"7","Classical_17.mp3","music"
4757,"computer","15",1954,"6","Cut_jazz_16.mp3","music"
4757,"computer","16",1756,"8","Classical_4.mp3","music"
4757,"computer","17",1902,"7","Classical_2.mp3","music"
4757,"computer","18",3995.00000000001,"6","Classical_6.mp3","music"
4757,"computer","19",1139,"8","Cut_jazz_2.mp3","music"
4780,"computer","1",2736.5,"1","Cut_jazz_16.mp3","music"
4780,"computer","2",1196.10000014305,"4","Classical_19.mp3","music"
4780,"computer","3",568,"6","Classical_8.mp3","music"
4780,"computer","4",617.400000095367,"4","Classical_17.mp3","music"
4780,"computer","5",604.200000047684,"8","Classical_7.mp3","music"
4780,"computer","6",543.5,"1","Cut_jazz_2.mp3","music"
4780,"computer","7",890.299999952316,"6","Cut_jazz_19.mp3","music"
4780,"computer","8",626.399999856949,"5","foil.mp3","music"
4780,"computer","9",552,"4","Cut_jazz_7.mp3","music"
4780,"computer","10",705.299999952316,"9","Classical_6.mp3","music"
4780,"computer","11",676.799999952316,"8","Cut_jazz_14.mp3","music"
4780,"computer","12",678.099999904633,"7","Classical_2.mp3","music"
4780,"computer","13",1643.40000009537,"6","Classical_4.mp3","music"
4780,"computer","14",1550.29999995232,"4","Classical_15.mp3","music"
4780,"computer","15",1216.29999995232,"3","Cut_jazz_1.mp3","music"
4780,"computer","16",1152,"2","Classical_18.mp3","music"
4780,"computer","17",960.699999809265,"2","Classical_1.mp3","music"
4780,"computer","18",633.099999904633,"5","Cut_jazz_5.mp3","music"
4780,"computer","19",618.900000095367,"6","Cut_jazz_10.mp3","music"
4792,"computer","1",1082.59999996424,"3","Cut_jazz_14.mp3","music"
4792,"computer","2",760.200000047684,"1","Cut_jazz_5.mp3","music"
4792,"computer","3",882,"1","Classical_4.mp3","music"
4792,"computer","4",931.299999952316,"1","Classical_6.mp3","music"
4792,"computer","5",982.899999976158,"2","foil.mp3","music"
4792,"computer","6",1356.09999996424,"2","Classical_2.mp3","music"
4792,"computer","7",1099,"4","Classical_18.mp3","music"
4792,"computer","8",631.099999964237,"5","Classical_19.mp3","music"
4792,"computer","9",749.5,"7","Cut_jazz_19.mp3","music"
4792,"computer","10",1155.19999998808,"4","Classical_7.mp3","music"
4792,"computer","11",834.199999988079,"1","Cut_jazz_16.mp3","music"
4792,"computer","12",1040.89999997616,"8","Cut_jazz_7.mp3","music"
4792,"computer","13",518.300000011921,"5","Classical_8.mp3","music"
4792,"computer","14",443.800000011921,"5","Cut_jazz_2.mp3","music"
4792,"computer","15",455,"3","Classical_15.mp3","music"
4792,"computer","16",776,"2","Cut_jazz_1.mp3","music"
4792,"computer","17",529.800000011921,"2","Cut_jazz_10.mp3","music"
4792,"computer","18",517,"4","Classical_1.mp3","music"
4792,"computer","19",685.800000011921,"3","Classical_17.mp3","music"
4749,"computer","1",1873,"7","Cut_jazz_7.mp3","music"
4749,"computer","2",3324,"8","Classical_17.mp3","music"
4749,"computer","3",2157,"2","foil.mp3","music"
4749,"computer","4",1687,"8","Classical_8.mp3","music"
4749,"computer","5",1528.99999999999,"3","Classical_15.mp3","music"
4749,"computer","6",1858.00000000001,"7","Classical_18.mp3","music"
4749,"computer","7",2260,"1","Cut_jazz_10.mp3","music"
4749,"computer","8",1295,"9","Classical_4.mp3","music"
4749,"computer","9",2890.99999999999,"8","Cut_jazz_19.mp3","music"
4749,"computer","10",1625,"6","Classical_6.mp3","music"
4749,"computer","11",1254.99999999999,"7","Cut_jazz_14.mp3","music"
4749,"computer","12",1450,"5","Classical_2.mp3","music"
4749,"computer","13",1567,"7","Classical_1.mp3","music"
4749,"computer","14",2173.00000000001,"8","Cut_jazz_2.mp3","music"
4749,"computer","15",3832,"9","Classical_19.mp3","music"
4749,"computer","16",1631.99999999999,"6","Classical_7.mp3","music"
4749,"computer","17",1197.99999999999,"4","Cut_jazz_1.mp3","music"
4749,"computer","18",1567,"5","Cut_jazz_5.mp3","music"
4749,"computer","19",2812.99999999997,"2","Cut_jazz_16.mp3","music"
4876,"computer","1",2260.70000004768,"6","Classical_18.mp3","music"
4876,"computer","2",2193.20000004768,"2","foil.mp3","music"
4876,"computer","3",2947.69999992847,"7","Classical_19.mp3","music"
4876,"computer","4",2928.79999995232,"7","Classical_1.mp3","music"
4876,"computer","5",2986.30000007153,"7","Cut_jazz_2.mp3","music"
4876,"computer","6",1661.29999995232,"6","Classical_8.mp3","music"
4876,"computer","7",966.100000023842,"6","Classical_7.mp3","music"
4876,"computer","8",1494.79999995232,"5","Classical_4.mp3","music"
4876,"computer","9",1810.70000004768,"8","Cut_jazz_14.mp3","music"
4876,"computer","10",1697,"8","Cut_jazz_7.mp3","music"
4876,"computer","11",1986.39999997616,"4","Cut_jazz_1.mp3","music"
4876,"computer","12",1575,"8","Cut_jazz_19.mp3","music"
4876,"computer","13",1829.89999997616,"6","Cut_jazz_16.mp3","music"
4876,"computer","14",1435.89999997616,"6","Classical_17.mp3","music"
4876,"computer","15",1699,"5","Classical_2.mp3","music"
4876,"computer","16",2987.79999995232,"5","Cut_jazz_5.mp3","music"
4876,"computer","17",3618.5,"5","Classical_15.mp3","music"
4876,"computer","18",1407.39999997616,"5","Cut_jazz_10.mp3","music"
4876,"computer","19",2762.10000002384,"4","Classical_6.mp3","music"
4740,"computer","1",988.200000286102,"9","Classical_7.mp3","music"
4740,"computer","2",1603.19999980927,"3","Cut_jazz_1.mp3","music"
4740,"computer","3",1996,"9","Classical_6.mp3","music"
4740,"computer","4",772.099999904633,"3","Cut_jazz_2.mp3","music"
4740,"computer","5",1766.90000009537,"3","Cut_jazz_19.mp3","music"
4740,"computer","6",892,"5","Cut_jazz_14.mp3","music"
4740,"computer","7",722,"3","Cut_jazz_10.mp3","music"
4740,"computer","8",1312.69999980927,"9","Classical_1.mp3","music"
4740,"computer","9",923.5,"9","Classical_2.mp3","music"
4740,"computer","10",457.60000038147,"9","Classical_18.mp3","music"
4740,"computer","11",458.299999713898,"9","Classical_17.mp3","music"
4740,"computer","12",1003.7999997139,"2","Cut_jazz_16.mp3","music"
4740,"computer","13",859,"2","Cut_jazz_5.mp3","music"
4740,"computer","14",2081,"4","Classical_19.mp3","music"
4740,"computer","15",3977.2999997139,"9","Classical_8.mp3","music"
4740,"computer","16",1054.80000019073,"2","foil.mp3","music"
4740,"computer","17",1848.69999980927,"9","Classical_15.mp3","music"
4740,"computer","18",1049.09999990463,"3","Cut_jazz_7.mp3","music"
4740,"computer","19",3442,"9","Classical_4.mp3","music"
4747,"computer","1",906.199999999255,"2","Cut_jazz_1.mp3","music"
4747,"computer","2",1305.19999999925,"4","Cut_jazz_5.mp3","music"
4747,"computer","3",1076.30000000075,"4","Classical_2.mp3","music"
4747,"computer","4",581.300000000745,"7","Classical_1.mp3","music"
4747,"computer","5",1672.10000000149,"5","Classical_4.mp3","music"
4747,"computer","6",1349.60000000149,"6","Cut_jazz_14.mp3","music"
4747,"computer","7",2364.09999999776,"4","Classical_18.mp3","music"
4747,"computer","8",1046,"5","Cut_jazz_10.mp3","music"
4747,"computer","9",1136.79999999702,"3","Classical_7.mp3","music"
4747,"computer","10",4042.10000000149,"2","Classical_6.mp3","music"
4747,"computer","11",1841.19999999925,"1","Classical_8.mp3","music"
4747,"computer","12",1145.60000000149,"3","Classical_15.mp3","music"
4747,"computer","13",949,"7","Cut_jazz_19.mp3","music"
4747,"computer","14",874.800000000745,"2","foil.mp3","music"
4747,"computer","15",2479.60000000149,"4","Cut_jazz_7.mp3","music"
4747,"computer","16",1783.29999999702,"5","Classical_17.mp3","music"
4747,"computer","17",1149.80000000075,"7","Cut_jazz_2.mp3","music"
4747,"computer","18",1059.79999999702,"4","Cut_jazz_16.mp3","music"
4747,"computer","19",2894.39999999851,"6","Classical_19.mp3","music"
4820,"computer","1",8176.09999999776,"4","Classical_2.mp3","music"
4820,"computer","2",4750.80000000075,"7","Cut_jazz_16.mp3","music"
4820,"computer","3",6651,"7","Classical_8.mp3","music"
4820,"computer","4",3129.89999999851,"6","Classical_7.mp3","music"
4820,"computer","5",673.5,"5","Classical_6.mp3","music"
4820,"computer","6",1354.60000000149,"2","foil.mp3","music"
4820,"computer","7",1977.39999999851,"6","Cut_jazz_7.mp3","music"
4820,"computer","8",1569.30000000075,"7","Cut_jazz_19.mp3","music"
4820,"computer","9",1227.80000000075,"6","Cut_jazz_2.mp3","music"
4820,"computer","10",2207,"6","Classical_18.mp3","music"
4820,"computer","11",31478.5,"6","Classical_1.mp3","music"
4820,"computer","12",3618.29999999702,"6","Cut_jazz_14.mp3","music"
4820,"computer","13",6342.80000000075,"6","Cut_jazz_5.mp3","music"
4820,"computer","14",1390.5,"4","Cut_jazz_10.mp3","music"
4820,"computer","15",1243.5,"6","Classical_4.mp3","music"
4820,"computer","16",1342.39999999851,"3","Classical_15.mp3","music"
4820,"computer","17",2270.79999999702,"6","Classical_19.mp3","music"
4820,"computer","18",3305.10000000149,"3","Cut_jazz_1.mp3","music"
4820,"computer","19",8184.59999999776,"4","Classical_17.mp3","music"
4860,"computer","1",1316.80000001192,"3","Classical_19.mp3","music"
4860,"computer","2",1236.19999998808,"3","Cut_jazz_16.mp3","music"
4860,"computer","3",1981.09999999404,"2","Classical_15.mp3","music"
4860,"computer","4",1022.90000000596,"2","foil.mp3","music"
4860,"computer","5",2403.19999998808,"3","Classical_2.mp3","music"
4860,"computer","6",2439.10000002384,"5","Classical_7.mp3","music"
4860,"computer","7",1905.80000001192,"7","Cut_jazz_2.mp3","music"
4860,"computer","8",1401.80000001192,"3","Classical_8.mp3","music"
4860,"computer","9",1388.59999999404,"4","Classical_18.mp3","music"
4860,"computer","10",1345.80000001192,"6","Classical_1.mp3","music"
4860,"computer","11",1052.69999998808,"1","Classical_4.mp3","music"
4860,"computer","12",1816.69999998808,"6","Cut_jazz_19.mp3","music"
4860,"computer","13",1230.09999999404,"5","Cut_jazz_14.mp3","music"
4860,"computer","14",827.299999982119,"2","Cut_jazz_5.mp3","music"
4860,"computer","15",2586.09999999404,"2","Cut_jazz_10.mp3","music"
4860,"computer","16",1118.30000001192,"3","Cut_jazz_1.mp3","music"
4860,"computer","17",1373.90000000596,"2","Classical_17.mp3","music"
4860,"computer","18",2176.60000002384,"2","Classical_6.mp3","music"
4860,"computer","19",1186.19999998808,"5","Cut_jazz_7.mp3","music"
4802,"computer","1",1241.39999985695,"4","Classical_19.mp3","music"
4802,"computer","2",815.5,"3","Classical_15.mp3","music"
4802,"computer","3",1280.90000009537,"2","foil.mp3","music"
4802,"computer","4",2838.40000009537,"6","Cut_jazz_2.mp3","music"
4802,"computer","5",1946.59999990463,"4","Classical_2.mp3","music"
4802,"computer","6",796.099999904633,"6","Cut_jazz_16.mp3","music"
4802,"computer","7",1052.90000009537,"5","Classical_7.mp3","music"
4802,"computer","8",2106.10000014305,"4","Classical_6.mp3","music"
4802,"computer","9",982.5,"7","Cut_jazz_7.mp3","music"
4802,"computer","10",1006,"4","Cut_jazz_10.mp3","music"
4802,"computer","11",1410.70000004768,"5","Cut_jazz_1.mp3","music"
4802,"computer","12",3656.59999990463,"7","Cut_jazz_19.mp3","music"
4802,"computer","13",1006.79999995232,"3","Classical_1.mp3","music"
4802,"computer","14",818.099999904633,"4","Classical_4.mp3","music"
4802,"computer","15",587.700000047684,"4","Classical_18.mp3","music"
4802,"computer","16",936.900000095367,"7","Cut_jazz_5.mp3","music"
4802,"computer","17",872.700000047684,"6","Cut_jazz_14.mp3","music"
4802,"computer","18",617.600000143051,"4","Classical_8.mp3","music"
4802,"computer","19",964.900000095367,"3","Classical_17.mp3","music"
4758,"computer","1",3667.60000000149,"2","Classical_2.mp3","music"
4758,"computer","2",881.699999999255,"1","Cut_jazz_5.mp3","music"
4758,"computer","3",1468,"2","Cut_jazz_7.mp3","music"
4758,"computer","4",1631.69999999925,"1","Classical_7.mp3","music"
4758,"computer","5",1273.10000000149,"1","Cut_jazz_19.mp3","music"
4758,"computer","6",1635.5,"2","Cut_jazz_2.mp3","music"
4758,"computer","7",942.300000000745,"2","foil.mp3","music"
4758,"computer","8",4451.59999999776,"2","Classical_17.mp3","music"
4758,"computer","9",1100.19999999925,"1","Cut_jazz_10.mp3","music"
4758,"computer","10",926.60000000149,"3","Cut_jazz_14.mp3","music"
4758,"computer","11",2646.80000000075,"2","Classical_4.mp3","music"
4758,"computer","12",1634.20000000298,"3","Classical_18.mp3","music"
4758,"computer","13",2905.39999999851,"2","Classical_8.mp3","music"
4758,"computer","14",840.800000000745,"3","Classical_1.mp3","music"
4758,"computer","15",829.199999999255,"2","Classical_6.mp3","music"
4758,"computer","16",747.699999999255,"1","Cut_jazz_1.mp3","music"
4758,"computer","17",1348.5,"2","Classical_15.mp3","music"
4758,"computer","18",2545.19999999925,"2","Cut_jazz_16.mp3","music"
4758,"computer","19",611.29999999702,"1","Classical_19.mp3","music"
4882,"computer","1",6112,"4","Cut_jazz_14.mp3","music"
4882,"computer","2",25354,"5","Classical_15.mp3","music"
4882,"computer","3",8314,"4","Cut_jazz_19.mp3","music"
4882,"computer","4",1421,"4","Cut_jazz_1.mp3","music"
4882,"computer","5",4622,"5","Classical_17.mp3","music"
4882,"computer","6",800,"5","foil.mp3","music"
4882,"computer","7",3236,"5","Classical_19.mp3","music"
4882,"computer","8",3099,"5","Classical_7.mp3","music"
4882,"computer","9",2555,"5","Cut_jazz_5.mp3","music"
4882,"computer","10",1965.99999999999,"5","Cut_jazz_7.mp3","music"
4882,"computer","11",9730,"5","Classical_8.mp3","music"
4882,"computer","12",3783,"5","Cut_jazz_16.mp3","music"
4882,"computer","13",1626,"5","Classical_4.mp3","music"
4882,"computer","14",850,"5","Cut_jazz_10.mp3","music"
4882,"computer","15",1856,"5","Classical_6.mp3","music"
4882,"computer","16",802,"5","Classical_18.mp3","music"
4882,"computer","17",32836,"5","Classical_1.mp3","music"
4882,"computer","18",916,"5","Cut_jazz_2.mp3","music"
4882,"computer","19",1203,"5","Classical_2.mp3","music"
4737,"computer","1",2797,"6","Cut_jazz_14.mp3","music"
4737,"computer","2",1575.39999997616,"4","Classical_8.mp3","music"
4737,"computer","3",1062.29999995232,"2","Cut_jazz_16.mp3","music"
4737,"computer","4",626.399999976158,"4","Cut_jazz_7.mp3","music"
4737,"computer","5",670.199999988079,"7","Classical_1.mp3","music"
4737,"computer","6",1113.19999998808,"6","Classical_18.mp3","music"
4737,"computer","7",1650.40000003576,"7","Classical_7.mp3","music"
4737,"computer","8",1012.29999995232,"1","Cut_jazz_5.mp3","music"
4737,"computer","9",4989.09999996424,"3","Cut_jazz_1.mp3","music"
4737,"computer","10",1183.10000002384,"2","Cut_jazz_19.mp3","music"
4737,"computer","11",5843.10000002384,"4","foil.mp3","music"
4737,"computer","12",2434.39999997616,"6","Classical_6.mp3","music"
4737,"computer","13",2098.19999998808,"9","Classical_2.mp3","music"
4737,"computer","14",1135.89999997616,"7","Classical_19.mp3","music"
4737,"computer","15",1867.5,"8","Cut_jazz_2.mp3","music"
4737,"computer","16",755,"8","Classical_15.mp3","music"
4737,"computer","17",1374,"6","Classical_17.mp3","music"
4737,"computer","18",1537,"4","Cut_jazz_10.mp3","music"
4737,"computer","19",1355.59999996424,"5","Classical_4.mp3","music"
4755,"computer","1",2815.20000004768,"2","Classical_17.mp3","music"
4755,"computer","2",2396.60000002384,"7","Cut_jazz_2.mp3","music"
4755,"computer","3",530.300000071526,"7","Cut_jazz_14.mp3","music"
4755,"computer","4",1794.10000002384,"6","Classical_2.mp3","music"
4755,"computer","5",1678.60000002384,"2","foil.mp3","music"
4755,"computer","6",2048.70000004768,"8","Classical_1.mp3","music"
4755,"computer","7",2825,"5","Cut_jazz_10.mp3","music"
4755,"computer","8",1269,"9","Classical_19.mp3","music"
4755,"computer","9",1912.09999990463,"8","Classical_7.mp3","music"
4755,"computer","10",1808.5,"6","Cut_jazz_5.mp3","music"
4755,"computer","11",812.200000047684,"9","Classical_8.mp3","music"
4755,"computer","12",2296,"7","Cut_jazz_7.mp3","music"
4755,"computer","13",2384.79999995232,"8","Cut_jazz_19.mp3","music"
4755,"computer","14",1415.79999995232,"6","Classical_6.mp3","music"
4755,"computer","15",2548.10000002384,"4","Cut_jazz_16.mp3","music"
4755,"computer","16",2478.39999997616,"4","Classical_15.mp3","music"
4755,"computer","17",1252.29999995232,"6","Classical_18.mp3","music"
4755,"computer","18",2050.10000002384,"4","Classical_4.mp3","music"
4755,"computer","19",2213.5,"9","Cut_jazz_1.mp3","music"
4742,"computer","1",1186.69999998808,"4","Classical_8.mp3","music"
4742,"computer","2",1087,"2","foil.mp3","music"
4742,"computer","3",2215.89999997616,"3","Cut_jazz_1.mp3","music"
4742,"computer","4",1147.89999997616,"8","Classical_17.mp3","music"
4742,"computer","5",784.200000017881,"8","Classical_1.mp3","music"
4742,"computer","6",663.799999982119,"5","Classical_6.mp3","music"
4742,"computer","7",414.800000011921,"6","Classical_4.mp3","music"
4742,"computer","8",461.5,"5","Cut_jazz_5.mp3","music"
4742,"computer","9",767.200000017881,"3","Cut_jazz_16.mp3","music"
4742,"computer","10",535,"5","Cut_jazz_19.mp3","music"
4742,"computer","11",4745.30000001192,"4","Cut_jazz_14.mp3","music"
4742,"computer","12",799.800000011921,"5","Classical_2.mp3","music"
4742,"computer","13",890.300000011921,"4","Classical_18.mp3","music"
4742,"computer","14",952.800000011921,"7","Cut_jazz_7.mp3","music"
4742,"computer","15",545.799999982119,"9","Classical_19.mp3","music"
4742,"computer","16",724.5,"6","Classical_7.mp3","music"
4742,"computer","17",473.800000011921,"4","Cut_jazz_2.mp3","music"
4742,"computer","18",426.59999999404,"2","Cut_jazz_10.mp3","music"
4742,"computer","19",1718.5,"4","Classical_15.mp3","music"
4862,"computer","1",1509.79999999981,"8","Classical_2.mp3","music"
4862,"computer","2",2329.39999999991,"7","Cut_jazz_19.mp3","music"
4862,"computer","3",953.099999999627,"8","Cut_jazz_1.mp3","music"
4862,"computer","4",1167.30000000028,"8","Classical_6.mp3","music"
4862,"computer","5",1622.70000000019,"2","foil.mp3","music"
4862,"computer","6",3309.10000000009,"9","Cut_jazz_2.mp3","music"
4862,"computer","7",450.400000000373,"5","Cut_jazz_10.mp3","music"
4862,"computer","8",601.900000000373,"6","Classical_4.mp3","music"
4862,"computer","9",1443.59999999963,"5","Cut_jazz_16.mp3","music"
4862,"computer","10",918.199999999721,"8","Cut_jazz_14.mp3","music"
4862,"computer","11",1524.5,"7","Classical_15.mp3","music"
4862,"computer","12",508.300000000279,"8","Classical_19.mp3","music"
4862,"computer","13",861.899999999907,"6","Classical_17.mp3","music"
4862,"computer","14",713.199999999721,"9","Classical_8.mp3","music"
4862,"computer","15",662.600000000093,"8","Cut_jazz_7.mp3","music"
4862,"computer","16",710.600000000093,"8","Classical_1.mp3","music"
4862,"computer","17",2572.20000000019,"7","Cut_jazz_5.mp3","music"
4862,"computer","18",6250.89999999991,"8","Classical_18.mp3","music"
4862,"computer","19",619.5,"7","Classical_7.mp3","music"
4739,"computer","1",1450.0999994278,"2","Classical_2.mp3","music"
4739,"computer","2",1550.5,"3","Classical_17.mp3","music"
4739,"computer","3",1636.89999961853,"2","Cut_jazz_2.mp3","music"
4739,"computer","4",1169,"5","Classical_6.mp3","music"
4739,"computer","5",751.199999809265,"9","Classical_7.mp3","music"
4739,"computer","6",1221.5,"7","Cut_jazz_10.mp3","music"
4739,"computer","7",1308.69999980927,"4","Cut_jazz_16.mp3","music"
4739,"computer","8",1049.0999994278,"6","Classical_15.mp3","music"
4739,"computer","9",1132.80000019073,"1","Classical_4.mp3","music"
4739,"computer","10",2399.19999980927,"6","Cut_jazz_19.mp3","music"
4739,"computer","11",14506.6999998093,"2","foil.mp3","music"
4739,"computer","12",33921.8000001907,"1","Cut_jazz_1.mp3","music"
4739,"computer","13",1642.80000019073,"5","Classical_19.mp3","music"
4739,"computer","14",1400.89999961853,"6","Classical_1.mp3","music"
4739,"computer","15",1132.89999961853,"8","Classical_8.mp3","music"
4739,"computer","16",1305.4000005722,"5","Cut_jazz_7.mp3","music"
4739,"computer","17",1692.80000019073,"1","Cut_jazz_5.mp3","music"
4739,"computer","18",1368,"1","Classical_18.mp3","music"
4739,"computer","19",1160,"3","Cut_jazz_14.mp3","music"
4736,"computer","1",2887.30000001192,"7","Cut_jazz_2.mp3","music"
4736,"computer","2",2770.69999998808,"2","foil.mp3","music"
4736,"computer","3",1338,"1","Classical_2.mp3","music"
4736,"computer","4",1464.10000002384,"3","Classical_1.mp3","music"
4736,"computer","5",746.399999976158,"1","Classical_17.mp3","music"
4736,"computer","6",1149,"7","Cut_jazz_7.mp3","music"
4736,"computer","7",1065.90000003576,"5","Classical_7.mp3","music"
4736,"computer","8",1204.90000003576,"8","Cut_jazz_5.mp3","music"
4736,"computer","9",740.099999964237,"3","Cut_jazz_1.mp3","music"
4736,"computer","10",4783.29999995232,"3","Cut_jazz_10.mp3","music"
4736,"computer","11",1531.90000003576,"2","Cut_jazz_14.mp3","music"
4736,"computer","12",652.300000011921,"1","Classical_6.mp3","music"
4736,"computer","13",567.5,"8","Classical_19.mp3","music"
4736,"computer","14",1156.19999998808,"2","Classical_18.mp3","music"
4736,"computer","15",1084.80000001192,"2","Classical_8.mp3","music"
4736,"computer","16",2420.69999998808,"1","Classical_4.mp3","music"
4736,"computer","17",581.5,"6","Cut_jazz_19.mp3","music"
4736,"computer","18",798.100000023842,"1","Classical_15.mp3","music"
4736,"computer","19",1369.10000002384,"3","Cut_jazz_16.mp3","music"
4800,"computer","1",3604.90000000596,"7","Cut_jazz_16.mp3","music"
4800,"computer","2",2900.40000000596,"2","Classical_6.mp3","music"
4800,"computer","3",1725.70000001788,"6","Classical_7.mp3","music"
4800,"computer","4",3878.19999998808,"5","Cut_jazz_10.mp3","music"
4800,"computer","5",1454.39999997616,"8","Classical_15.mp3","music"
4800,"computer","6",2334.59999999404,"4","Classical_18.mp3","music"
