"Prolific_ID","Participant.Device.Type","Trial.Number","Reaction.Time","Response","display","ImageStim","MusicStim","StimCued"
4792,"computer","4","1156.09999996424","1","Post","image34.jpg","Classical_1.mp3","Image"
4792,"computer","5","1478.09999996424","2","Post","image17.jpg","Classical_18.mp3","Image"
4792,"computer","6","1002.5","3","Post","image35.jpg","Classical_4.mp3","Image"
4792,"computer","7","1618.30000001192","4","Post","image52.jpg","Cut_jazz_5.mp3","Both"
4792,"computer","8","1441.80000001192","2","Post","image4.jpg","Cut_jazz_1.mp3","Music"
4792,"computer","9","1071.19999998808","6","Post","image20.jpg","Classical_6.mp3","Image"
4792,"computer","10","783.699999988079","5","Post","image12.jpg","Cut_jazz_16.mp3","Music"
4792,"computer","11","800.199999988079","1","Post","image4.jpg","Classical_19.mp3","Both"
4792,"computer","12","1516.80000001192","4","Post","image2.jpg","Classical_8.mp3","Both"
4792,"computer","13","1071.19999998808","1","Post","image14.jpg","Classical_18.mp3","Both"
4792,"computer","14","1247.30000001192","2","Post","image1.jpg","Cut_jazz_16.mp3","Image"
4792,"computer","15","727.899999976158","4","Post","image5.jpg","Cut_jazz_10.mp3","Music"
4792,"computer","16","1019.20000004768","7","Post","image36.jpg","Cut_jazz_2.mp3","Both"
4792,"computer","17","710.199999988079","1","Post","image14.jpg","Classical_15.mp3","Music"
4792,"computer","18","905.599999964237","2","Post","image10.jpg","Cut_jazz_16.mp3","Both"
4792,"computer","19","580.899999976158","3","Post","image20.jpg","Classical_8.mp3","Music"
4792,"computer","20","762.199999988079","4","Post","image33.jpg","Classical_1.mp3","Music"
4792,"computer","21","780.900000035763","2","Post","image14.jpg","Classical_17.mp3","Image"
4792,"computer","22","484.300000011921","2","Post","image35.jpg","Classical_2.mp3","Music"
4792,"computer","23","1274.29999995232","7","Post","image39.jpg","Cut_jazz_1.mp3","Both"
4792,"computer","24","1073.59999996424","2","Post","image15.jpg","Classical_15.mp3","Image"
4792,"computer","25","964.699999988079","2","Post","image12.jpg","Cut_jazz_14.mp3","Both"
4792,"computer","26","1060.10000002384","5","Post","image36.jpg","Classical_19.mp3","Music"
4792,"computer","27","1281.69999998808","3","Post","image3.jpg","Classical_7.mp3","Music"
4792,"computer","28","862.900000035763","2","Post","image17.jpg","Classical_17.mp3","Music"
4792,"computer","29","849.099999964237","1","Post","image34.jpg","Classical_4.mp3","Music"
4792,"computer","30","648.199999988079","2","Post","image15.jpg","Classical_18.mp3","Music"
4792,"computer","31","1123.39999997616","2","Post","image12.jpg","Cut_jazz_19.mp3","Image"
4792,"computer","32","830.699999988079","1","Post","image2.jpg","Classical_6.mp3","Music"
4792,"computer","33","908.200000047684","2","Post","image3.jpg","Classical_8.mp3","Image"
4792,"computer","34","910.199999988079","8","Post","image52.jpg","Cut_jazz_7.mp3","Music"
4792,"computer","35","674.799999952316","2","Post","image10.jpg","Cut_jazz_14.mp3","Image"
4792,"computer","36","572.899999976158","2","Post","image35.jpg","Classical_1.mp3","Both"
4792,"computer","37","978.5","3","Post","image1.jpg","Cut_jazz_14.mp3","Music"
4792,"computer","38","807","2","Post","image2.jpg","Classical_7.mp3","Image"
4792,"computer","39","1050.89999997616","8","Post","image39.jpg","Classical_19.mp3","Image"
4792,"computer","40","890.200000047684","7","Post","image47.jpg","Cut_jazz_7.mp3","Image"
4792,"computer","41","865.5","8","Post","image39.jpg","Cut_jazz_2.mp3","Music"
4792,"computer","42","1133.69999998808","1","Post","image3.jpg","Classical_6.mp3","Both"
4792,"computer","43","1099.5","6","Post","image52.jpg","Cut_jazz_10.mp3","Image"
4792,"computer","44","728.100000023842","1","Post","image33.jpg","Classical_4.mp3","Both"
4792,"computer","45","640.399999976158","2","Post","image10.jpg","Cut_jazz_19.mp3","Music"
4792,"computer","46","867.199999988079","5","Post","image5.jpg","Cut_jazz_7.mp3","Both"
4792,"computer","47","545","1","Post","image1.jpg","Cut_jazz_19.mp3","Both"
4792,"computer","48","431.199999988079","1","Post","image15.jpg","Classical_17.mp3","Both"
4792,"computer","49","854","3","Post","image47.jpg","Cut_jazz_10.mp3","Both"
4792,"computer","50","424.5","3","Post","image20.jpg","Classical_7.mp3","Both"
4792,"computer","51","457","3","Post","image47.jpg","Cut_jazz_5.mp3","Music"
4792,"computer","52","886","1","Post","image34.jpg","Classical_2.mp3","Both"
4792,"computer","53","1115.19999998808","2","Post","image17.jpg","Classical_15.mp3","Both"
4792,"computer","54","673.800000011921","1","Post","image33.jpg","Classical_2.mp3","Image"
4792,"computer","55","431.800000011921","1","Post","image4.jpg","Cut_jazz_2.mp3","Image"
4792,"computer","56","718.899999976158","3","Post","image5.jpg","Cut_jazz_5.mp3","Image"
4792,"computer","57","699","1","Post","image36.jpg","Cut_jazz_1.mp3","Image"
4792,"computer","4","1418.80000001192","2","Pre","image14.jpg","Cut_jazz_19.mp3","Both"
4792,"computer","5","1166.80000001192","1","Pre","image17.jpg","Cut_jazz_14.mp3","Both"
4792,"computer","6","1394.5","2","Pre","image35.jpg","Classical_7.mp3","Music"
4792,"computer","7","892.5","1","Pre","image1.jpg","Cut_jazz_1.mp3","Image"
4792,"computer","8","1062.30000001192","3","Pre","image47.jpg","Classical_1.mp3","Music"
4792,"computer","9","1082.5","2","Pre","image2.jpg","Classical_17.mp3","Image"
4792,"computer","10","845.600000023842","2","Pre","image39.jpg","Cut_jazz_10.mp3","Music"
4792,"computer","11","1005.19999998808","3","Pre","image20.jpg","Classical_18.mp3","Music"
4792,"computer","12","1165","2","Pre","image1.jpg","Classical_19.mp3","Music"
4792,"computer","13","916.5","1","Pre","image4.jpg","Cut_jazz_10.mp3","Image"
4792,"computer","14","848.100000023842","1","Pre","image15.jpg","Cut_jazz_16.mp3","Both"
4792,"computer","15","684","4","Pre","image5.jpg","Classical_1.mp3","Image"
4792,"computer","16","805.699999988079","1","Pre","image33.jpg","Classical_8.mp3","Both"
4792,"computer","17","1079.10000002384","1","Pre","image36.jpg","Cut_jazz_10.mp3","Both"
4792,"computer","18","980.799999952316","1","Pre","image3.jpg","Classical_18.mp3","Image"
4792,"computer","19","827.5","1","Pre","image33.jpg","Classical_7.mp3","Image"
4792,"computer","20","1448","9","Pre","image1.jpg","Cut_jazz_2.mp3","Both"
4792,"computer","21","989.899999976158","9","Pre","image4.jpg","Cut_jazz_7.mp3","Music"
4792,"computer","22","1039.69999998808","2","Pre","image20.jpg","Classical_17.mp3","Both"
4792,"computer","23","814.899999976158","1","Pre","image17.jpg","Cut_jazz_16.mp3","Music"
4792,"computer","24","853.699999988079","1","Pre","image20.jpg","Classical_15.mp3","Image"
4792,"computer","25","1203.80000001192","2","Pre","image14.jpg","Cut_jazz_14.mp3","Music"
4792,"computer","26","1458.19999998808","1","Pre","image2.jpg","Classical_15.mp3","Music"
4792,"computer","27","730.699999988079","1","Pre","image36.jpg","Cut_jazz_7.mp3","Image"
4792,"computer","28","630.200000047684","1","Pre","image14.jpg","Cut_jazz_16.mp3","Image"
4792,"computer","29","1346.19999998808","2","Pre","image33.jpg","Classical_6.mp3","Music"
4792,"computer","30","2410.40000003576","2","Pre","image5.jpg","Classical_4.mp3","Music"
4792,"computer","31","1320.69999998808","1","Pre","image17.jpg","Cut_jazz_19.mp3","Image"
4792,"computer","32","1127.09999996424","1","Pre","image2.jpg","Classical_18.mp3","Both"
4792,"computer","33","1532.80000001192","2","Pre","image52.jpg","Classical_4.mp3","Image"
4792,"computer","34","2125.30000001192","1","Pre","image10.jpg","Cut_jazz_1.mp3","Both"
4792,"computer","35","1274.19999998808","9","Pre","image12.jpg","Classical_19.mp3","Both"
4792,"computer","36","2096.60000002384","4","Pre","image35.jpg","Classical_8.mp3","Image"
4792,"computer","37","889.800000011921","3","Pre","image10.jpg","Cut_jazz_2.mp3","Music"
4792,"computer","38","480","2","Pre","image3.jpg","Classical_17.mp3","Music"
4792,"computer","39","489.400000035763","2","Pre","image47.jpg","Classical_2.mp3","Image"
4792,"computer","40","763.5","2","Pre","image35.jpg","Classical_6.mp3","Both"
4792,"computer","41","1359.19999998808","6","Pre","image5.jpg","Classical_2.mp3","Both"
4792,"computer","42","1569.19999998808","9","Pre","image15.jpg","Cut_jazz_19.mp3","Music"
4792,"computer","43","766.5","7","Pre","image39.jpg","Cut_jazz_7.mp3","Both"
4792,"computer","44","1616.80000001192","1","Pre","image4.jpg","Cut_jazz_5.mp3","Both"
4792,"computer","45","914.699999988079","1","Pre","image47.jpg","Classical_4.mp3","Both"
4792,"computer","46","673.599999964237","1","Pre","image3.jpg","Classical_15.mp3","Both"
4792,"computer","47","445.599999964237","1","Pre","image12.jpg","Cut_jazz_2.mp3","Image"
4792,"computer","48","445.599999964237","1","Pre","image36.jpg","Cut_jazz_5.mp3","Music"
4792,"computer","49","759.899999976158","1","Pre","image10.jpg","Classical_19.mp3","Image"
4792,"computer","50","1049","1","Pre","image34.jpg","Classical_7.mp3","Both"
4792,"computer","51","1012","2","Pre","image52.jpg","Classical_1.mp3","Both"
4792,"computer","52","794.899999976158","7","Pre","image39.jpg","Cut_jazz_5.mp3","Image"
4792,"computer","53","911.600000023842","7","Pre","image52.jpg","Classical_2.mp3","Music"
4792,"computer","54","985.800000011921","3","Pre","image34.jpg","Classical_8.mp3","Music"
4792,"computer","55","868.400000035763","3","Pre","image12.jpg","Cut_jazz_1.mp3","Music"
4792,"computer","56","1183.30000001192","1","Pre","image34.jpg","Classical_6.mp3","Image"
4792,"computer","57","1252.60000002384","9","Pre","image15.jpg","Cut_jazz_14.mp3","Image"
4862,"computer","4","891.09999999986","3","Post","image34.jpg","Classical_1.mp3","Image"
4862,"computer","5","1334.60000000009","4","Post","image17.jpg","Classical_18.mp3","Image"
4862,"computer","6","722.699999999953","8","Post","image35.jpg","Classical_4.mp3","Image"
4862,"computer","7","946.90000000014","6","Post","image52.jpg","Cut_jazz_5.mp3","Both"
4862,"computer","8","1758.69999999995","6","Post","image4.jpg","Cut_jazz_1.mp3","Music"
4862,"computer","9","1854.29999999981","5","Post","image20.jpg","Classical_6.mp3","Image"
4862,"computer","10","869.40000000014","7","Post","image12.jpg","Cut_jazz_16.mp3","Music"
4862,"computer","11","692.200000000186","6","Post","image4.jpg","Classical_19.mp3","Both"
4862,"computer","12","2385.40000000014","7","Post","image2.jpg","Classical_8.mp3","Both"
4862,"computer","13","879.199999999953","8","Post","image14.jpg","Classical_18.mp3","Both"
4862,"computer","14","41925","3","Post","image1.jpg","Cut_jazz_16.mp3","Image"
4862,"computer","15","3358.5","4","Post","image5.jpg","Cut_jazz_10.mp3","Music"
4862,"computer","16","1417","8","Post","image36.jpg","Cut_jazz_2.mp3","Both"
4862,"computer","17","973.399999999907","6","Post","image14.jpg","Classical_15.mp3","Music"
4862,"computer","18","886.800000000047","4","Post","image10.jpg","Cut_jazz_16.mp3","Both"
4862,"computer","19","768.59999999986","8","Post","image20.jpg","Classical_8.mp3","Music"
4862,"computer","20","1216.59999999986","8","Post","image33.jpg","Classical_1.mp3","Music"
4862,"computer","21","1439.60000000009","7","Post","image14.jpg","Classical_17.mp3","Image"
4862,"computer","22","534.90000000014","9","Post","image35.jpg","Classical_2.mp3","Music"
4862,"computer","23","1249","6","Post","image39.jpg","Cut_jazz_1.mp3","Both"
4862,"computer","24","5880.30000000005","4","Post","image15.jpg","Classical_15.mp3","Image"
4862,"computer","25","19236.7","5","Post","image12.jpg","Cut_jazz_14.mp3","Both"
4862,"computer","26","894.5","7","Post","image36.jpg","Classical_19.mp3","Music"
4862,"computer","27","1964.09999999986","7","Post","image3.jpg","Classical_7.mp3","Music"
4862,"computer","28","4057.90000000014","7","Post","image17.jpg","Classical_17.mp3","Music"
4862,"computer","29","4715.80000000005","7","Post","image34.jpg","Classical_4.mp3","Music"
4862,"computer","30","629.899999999907","8","Post","image15.jpg","Classical_18.mp3","Music"
4862,"computer","31","7352.5","7","Post","image12.jpg","Cut_jazz_19.mp3","Image"
4862,"computer","32","2578.69999999995","6","Post","image2.jpg","Classical_6.mp3","Music"
4862,"computer","33","2981.30000000005","5","Post","image3.jpg","Classical_8.mp3","Image"
4862,"computer","34","1878.79999999981","6","Post","image52.jpg","Cut_jazz_7.mp3","Music"
4862,"computer","35","870.699999999953","4","Post","image10.jpg","Cut_jazz_14.mp3","Image"
4862,"computer","36","928.600000000093","7","Post","image35.jpg","Classical_1.mp3","Both"
4862,"computer","37","759.40000000014","6","Post","image1.jpg","Cut_jazz_14.mp3","Music"
4862,"computer","38","548.699999999953","5","Post","image2.jpg","Classical_7.mp3","Image"
4862,"computer","39","2561.30000000005","7","Post","image39.jpg","Classical_19.mp3","Image"
4862,"computer","40","826.800000000047","9","Post","image47.jpg","Cut_jazz_7.mp3","Image"
4862,"computer","41","623.800000000047","9","Post","image39.jpg","Cut_jazz_2.mp3","Music"
4862,"computer","42","578.800000000047","8","Post","image3.jpg","Classical_6.mp3","Both"
4862,"computer","43","910","4","Post","image52.jpg","Cut_jazz_10.mp3","Image"
4862,"computer","44","2026.69999999995","4","Post","image33.jpg","Classical_4.mp3","Both"
4862,"computer","45","908.600000000093","7","Post","image10.jpg","Cut_jazz_19.mp3","Music"
4862,"computer","46","1063.30000000005","6","Post","image5.jpg","Cut_jazz_7.mp3","Both"
4862,"computer","47","881.800000000279","5","Post","image1.jpg","Cut_jazz_19.mp3","Both"
4862,"computer","48","860.599999999627","4","Post","image15.jpg","Classical_17.mp3","Both"
4862,"computer","49","525.899999999907","9","Post","image47.jpg","Cut_jazz_10.mp3","Both"
4862,"computer","50","660.299999999814","6","Post","image20.jpg","Classical_7.mp3","Both"
4862,"computer","51","626.100000000093","8","Post","image47.jpg","Cut_jazz_5.mp3","Music"
4862,"computer","52","2163.19999999972","7","Post","image34.jpg","Classical_2.mp3","Both"
4862,"computer","53","546.099999999627","6","Post","image17.jpg","Classical_15.mp3","Both"
4862,"computer","54","1231.60000000009","5","Post","image33.jpg","Classical_2.mp3","Image"
4862,"computer","55","1369.5","5","Post","image4.jpg","Cut_jazz_2.mp3","Image"
4862,"computer","56","3873","6","Post","image5.jpg","Cut_jazz_5.mp3","Image"
4862,"computer","57","1956.89999999991","6","Post","image36.jpg","Cut_jazz_1.mp3","Image"
4862,"computer","4","729","8","Pre","image14.jpg","Cut_jazz_19.mp3","Both"
4862,"computer","5","706.100000000093","7","Pre","image17.jpg","Cut_jazz_14.mp3","Both"
4862,"computer","6","1320.30000000028","6","Pre","image35.jpg","Classical_7.mp3","Music"
4862,"computer","7","876.600000000093","2","Pre","image1.jpg","Cut_jazz_1.mp3","Image"
4862,"computer","8","937.199999999721","9","Pre","image47.jpg","Classical_1.mp3","Music"
4862,"computer","9","1708.60000000009","6","Pre","image2.jpg","Classical_17.mp3","Image"
4862,"computer","10","2102.40000000037","3","Pre","image39.jpg","Cut_jazz_10.mp3","Music"
4862,"computer","11","1245.70000000019","8","Pre","image20.jpg","Classical_18.mp3","Music"
4862,"computer","12","3039.10000000009","7","Pre","image1.jpg","Classical_19.mp3","Music"
4862,"computer","13","713.900000000373","7","Pre","image4.jpg","Cut_jazz_10.mp3","Image"
4862,"computer","14","866.100000000093","4","Pre","image15.jpg","Cut_jazz_16.mp3","Both"
4862,"computer","15","1398.89999999991","6","Pre","image5.jpg","Classical_1.mp3","Image"
4862,"computer","16","2089.30000000028","8","Pre","image33.jpg","Classical_8.mp3","Both"
4862,"computer","17","8371","6","Pre","image36.jpg","Cut_jazz_10.mp3","Both"
4862,"computer","18","463.399999999907","7","Pre","image3.jpg","Classical_18.mp3","Image"
4862,"computer","19","995.200000000186","4","Pre","image33.jpg","Classical_7.mp3","Image"
4862,"computer","20","2431.29999999981","5","Pre","image1.jpg","Cut_jazz_2.mp3","Both"
4862,"computer","21","1067.80000000028","8","Pre","image4.jpg","Cut_jazz_7.mp3","Music"
4862,"computer","22","3268.5","9","Pre","image20.jpg","Classical_17.mp3","Both"
4862,"computer","23","857.399999999907","7","Pre","image17.jpg","Cut_jazz_16.mp3","Music"
4862,"computer","24","1086.70000000019","6","Pre","image20.jpg","Classical_15.mp3","Image"
4862,"computer","25","1791.80000000028","5","Pre","image14.jpg","Cut_jazz_14.mp3","Music"
4862,"computer","26","1080.90000000037","7","Pre","image2.jpg","Classical_15.mp3","Music"
4862,"computer","27","937.5","3","Pre","image36.jpg","Cut_jazz_7.mp3","Image"
4862,"computer","28","792.699999999721","7","Pre","image14.jpg","Cut_jazz_16.mp3","Image"
4862,"computer","29","736.700000000186","7","Pre","image33.jpg","Classical_6.mp3","Music"
4862,"computer","30","804.199999999721","5","Pre","image5.jpg","Classical_4.mp3","Music"
4862,"computer","31","1339.29999999981","7","Pre","image17.jpg","Cut_jazz_19.mp3","Image"
4862,"computer","32","1870.90000000037","6","Pre","image2.jpg","Classical_18.mp3","Both"
4862,"computer","33","2332.60000000009","4","Pre","image52.jpg","Classical_4.mp3","Image"
4862,"computer","34","826.299999999814","5","Pre","image10.jpg","Cut_jazz_1.mp3","Both"
4862,"computer","35","969.899999999907","7","Pre","image12.jpg","Classical_19.mp3","Both"
4862,"computer","36","866.600000000093","5","Pre","image35.jpg","Classical_8.mp3","Image"
4862,"computer","37","578.5","9","Pre","image10.jpg","Cut_jazz_2.mp3","Music"
4862,"computer","38","391.899999999907","7","Pre","image3.jpg","Classical_17.mp3","Music"
4862,"computer","39","401.799999999814","9","Pre","image47.jpg","Classical_2.mp3","Image"
4862,"computer","40","526.299999999814","7","Pre","image35.jpg","Classical_6.mp3","Both"
4862,"computer","41","987.599999999627","7","Pre","image5.jpg","Classical_2.mp3","Both"
4862,"computer","42","542.399999999907","8","Pre","image15.jpg","Cut_jazz_19.mp3","Music"
4862,"computer","43","878","7","Pre","image39.jpg","Cut_jazz_7.mp3","Both"
4862,"computer","44","1090.59999999963","7","Pre","image4.jpg","Cut_jazz_5.mp3","Both"
4862,"computer","45","6409.60000000009","9","Pre","image47.jpg","Classical_4.mp3","Both"
4862,"computer","46","986","6","Pre","image3.jpg","Classical_15.mp3","Both"
4862,"computer","47","748","8","Pre","image12.jpg","Cut_jazz_2.mp3","Image"
4862,"computer","48","1009.39999999991","8","Pre","image36.jpg","Cut_jazz_5.mp3","Music"
4862,"computer","49","5086","8","Pre","image10.jpg","Classical_19.mp3","Image"
4862,"computer","50","1297.60000000009","8","Pre","image34.jpg","Classical_7.mp3","Both"
4862,"computer","51","1153.79999999981","7","Pre","image52.jpg","Classical_1.mp3","Both"
4862,"computer","52","2144.30000000028","7","Pre","image39.jpg","Cut_jazz_5.mp3","Image"
4862,"computer","53","821.600000000093","9","Pre","image52.jpg","Classical_2.mp3","Music"
4862,"computer","54","1003.70000000019","9","Pre","image34.jpg","Classical_8.mp3","Music"
4862,"computer","55","918.799999999814","8","Pre","image12.jpg","Cut_jazz_1.mp3","Music"
4862,"computer","56","543.600000000093","6","Pre","image34.jpg","Classical_6.mp3","Image"
4862,"computer","57","564.799999999814","5","Pre","image15.jpg","Cut_jazz_14.mp3","Image"
4849,"computer","4","1803.90000009537","1","Post","image34.jpg","Classical_1.mp3","Image"
4849,"computer","5","1946.69999980927","6","Post","image17.jpg","Classical_18.mp3","Image"
4849,"computer","6","2324.19999980927","2","Post","image35.jpg","Classical_4.mp3","Image"
4849,"computer","7","1990.09999990463","4","Post","image52.jpg","Cut_jazz_5.mp3","Both"
4849,"computer","8","3972.69999980927","3","Post","image4.jpg","Cut_jazz_1.mp3","Music"
4849,"computer","9","1539.30000019073","7","Post","image20.jpg","Classical_6.mp3","Image"
4849,"computer","10","1975.5","3","Post","image12.jpg","Cut_jazz_16.mp3","Music"
4849,"computer","11","12700.0999999046","4","Post","image4.jpg","Classical_19.mp3","Both"
4849,"computer","12","2084.90000009537","9","Post","image2.jpg","Classical_8.mp3","Both"
4849,"computer","13","2660.7000002861","6","Post","image14.jpg","Classical_18.mp3","Both"
4849,"computer","14","4676.80000019073","2","Post","image1.jpg","Cut_jazz_16.mp3","Image"
4849,"computer","15","1612.09999990463","1","Post","image5.jpg","Cut_jazz_10.mp3","Music"
4849,"computer","16","4757.90000009537","4","Post","image36.jpg","Cut_jazz_2.mp3","Both"
4849,"computer","17","2121.40000009537","8","Post","image14.jpg","Classical_15.mp3","Music"
4849,"computer","18","1994.09999990463","3","Post","image10.jpg","Cut_jazz_16.mp3","Both"
4849,"computer","19","1627.2999997139","9","Post","image20.jpg","Classical_8.mp3","Music"
4849,"computer","20","2710.19999980927","4","Post","image33.jpg","Classical_1.mp3","Music"
4849,"computer","21","2936","8","Post","image14.jpg","Classical_17.mp3","Image"
4849,"computer","22","1651.09999990463","6","Post","image35.jpg","Classical_2.mp3","Music"
4849,"computer","23","2697.5","7","Post","image39.jpg","Cut_jazz_1.mp3","Both"
4849,"computer","24","1513.09999990463","1","Post","image15.jpg","Classical_15.mp3","Image"
4849,"computer","25","1927.2999997139","7","Post","image12.jpg","Cut_jazz_14.mp3","Both"
4849,"computer","26","4041.90000009537","8","Post","image36.jpg","Classical_19.mp3","Music"
4849,"computer","27","1772.59999990463","9","Post","image3.jpg","Classical_7.mp3","Music"
4849,"computer","28","1414.09999990463","2","Post","image17.jpg","Classical_17.mp3","Music"
4849,"computer","29","2648","3","Post","image34.jpg","Classical_4.mp3","Music"
4849,"computer","30","2808.5","6","Post","image15.jpg","Classical_18.mp3","Music"
4849,"computer","31","2260.19999980927","9","Post","image12.jpg","Cut_jazz_19.mp3","Image"
4849,"computer","32","6222.10000038147","5","Post","image2.jpg","Classical_6.mp3","Music"
4849,"computer","33","1639.59999990463","4","Post","image3.jpg","Classical_8.mp3","Image"
4849,"computer","34","3739","4","Post","image52.jpg","Cut_jazz_7.mp3","Music"
4849,"computer","35","1256","2","Post","image10.jpg","Cut_jazz_14.mp3","Image"
4849,"computer","36","2466.7999997139","1","Post","image35.jpg","Classical_1.mp3","Both"
4849,"computer","37","2068.59999990463","4","Post","image1.jpg","Cut_jazz_14.mp3","Music"
4849,"computer","38","2912.90000009537","6","Post","image2.jpg","Classical_7.mp3","Image"
4849,"computer","39","2377.7000002861","8","Post","image39.jpg","Classical_19.mp3","Image"
4849,"computer","40","2679.39999961853","1","Post","image47.jpg","Cut_jazz_7.mp3","Image"
4849,"computer","41","1637.90000009537","2","Post","image39.jpg","Cut_jazz_2.mp3","Music"
4849,"computer","42","2675.10000038147","6","Post","image3.jpg","Classical_6.mp3","Both"
4849,"computer","43","5318.19999980927","5","Post","image52.jpg","Cut_jazz_10.mp3","Image"
4849,"computer","44","2699","1","Post","image33.jpg","Classical_4.mp3","Both"
4849,"computer","45","3710.09999990463","3","Post","image10.jpg","Cut_jazz_19.mp3","Music"
4849,"computer","46","2406.89999961853","4","Post","image5.jpg","Cut_jazz_7.mp3","Both"
4849,"computer","47","1665","2","Post","image1.jpg","Cut_jazz_19.mp3","Both"
4849,"computer","48","3088.30000019073","2","Post","image15.jpg","Classical_17.mp3","Both"
4849,"computer","49","1123.69999980927","1","Post","image47.jpg","Cut_jazz_10.mp3","Both"
4849,"computer","50","1254.30000019073","8","Post","image20.jpg","Classical_7.mp3","Both"
4849,"computer","51","2690.5","2","Post","image47.jpg","Cut_jazz_5.mp3","Music"
4849,"computer","52","2165.69999980927","1","Post","image34.jpg","Classical_2.mp3","Both"
4849,"computer","53","1161.59999990463","9","Post","image17.jpg","Classical_15.mp3","Both"
4849,"computer","54","2024.30000019073","2","Post","image33.jpg","Classical_2.mp3","Image"
4849,"computer","55","4723.2999997139","1","Post","image4.jpg","Cut_jazz_2.mp3","Image"
4849,"computer","56","4201.30000019073","5","Post","image5.jpg","Cut_jazz_5.mp3","Image"
4849,"computer","57","1587.30000019073","2","Post","image36.jpg","Cut_jazz_1.mp3","Image"
4849,"computer","4","5544.2999997139","8","Pre","image14.jpg","Cut_jazz_19.mp3","Both"
4849,"computer","5","7267.7000002861","7","Pre","image17.jpg","Cut_jazz_14.mp3","Both"
4849,"computer","6","2366.69999980927","8","Pre","image35.jpg","Classical_7.mp3","Music"
4849,"computer","7","1813.59999990463","2","Pre","image1.jpg","Cut_jazz_1.mp3","Image"
4849,"computer","8","2336.19999980927","9","Pre","image47.jpg","Classical_1.mp3","Music"
4849,"computer","9","1802.69999980927","6","Pre","image2.jpg","Classical_17.mp3","Image"
4849,"computer","10","1922.10000038147","1","Pre","image39.jpg","Cut_jazz_10.mp3","Music"
4849,"computer","11","5389.30000019073","4","Pre","image20.jpg","Classical_18.mp3","Music"
4849,"computer","12","2568.80000019073","7","Pre","image1.jpg","Classical_19.mp3","Music"
4849,"computer","13","6592","2","Pre","image4.jpg","Cut_jazz_10.mp3","Image"
4849,"computer","14","1318.5","1","Pre","image15.jpg","Cut_jazz_16.mp3","Both"
4849,"computer","15","1995.5","7","Pre","image5.jpg","Classical_1.mp3","Image"
4849,"computer","16","1706","3","Pre","image33.jpg","Classical_8.mp3","Both"
4849,"computer","17","3680.2999997139","2","Pre","image36.jpg","Cut_jazz_10.mp3","Both"
4849,"computer","18","5854.90000009537","7","Pre","image3.jpg","Classical_18.mp3","Image"
4849,"computer","19","1535.89999961853","1","Pre","image33.jpg","Classical_7.mp3","Image"
4849,"computer","20","4331.59999990463","3","Pre","image1.jpg","Cut_jazz_2.mp3","Both"
4849,"computer","21","3939.80000019073","4","Pre","image4.jpg","Cut_jazz_7.mp3","Music"
4849,"computer","22","1431.89999961853","6","Pre","image20.jpg","Classical_17.mp3","Both"
4849,"computer","23","1458.40000009537","1","Pre","image17.jpg","Cut_jazz_16.mp3","Music"
4849,"computer","24","1588","8","Pre","image20.jpg","Classical_15.mp3","Image"
4849,"computer","25","4290.80000019073","7","Pre","image14.jpg","Cut_jazz_14.mp3","Music"
4849,"computer","26","1569.69999980927","6","Pre","image2.jpg","Classical_15.mp3","Music"
4849,"computer","27","1162.59999990463","2","Pre","image36.jpg","Cut_jazz_7.mp3","Image"
4849,"computer","28","1771.30000019073","9","Pre","image14.jpg","Cut_jazz_16.mp3","Image"
4849,"computer","29","1256.69999980927","2","Pre","image33.jpg","Classical_6.mp3","Music"
4849,"computer","30","2106.59999990463","3","Pre","image5.jpg","Classical_4.mp3","Music"
4849,"computer","31","1749.80000019073","8","Pre","image17.jpg","Cut_jazz_19.mp3","Image"
4849,"computer","32","1993.2000002861","6","Pre","image2.jpg","Classical_18.mp3","Both"
4849,"computer","33","847.5","4","Pre","image52.jpg","Classical_4.mp3","Image"
4849,"computer","34","1464.59999990463","1","Pre","image10.jpg","Cut_jazz_1.mp3","Both"
4849,"computer","35","1192.7000002861","9","Pre","image12.jpg","Classical_19.mp3","Both"
4849,"computer","36","1271.5","2","Pre","image35.jpg","Classical_8.mp3","Image"
4849,"computer","37","712.5","2","Pre","image10.jpg","Cut_jazz_2.mp3","Music"
4849,"computer","38","1590.30000019073","5","Pre","image3.jpg","Classical_17.mp3","Music"
4849,"computer","39","1052.19999980927","1","Pre","image47.jpg","Classical_2.mp3","Image"
4849,"computer","40","704.199999809265","1","Pre","image35.jpg","Classical_6.mp3","Both"
4849,"computer","41","3153.5","4","Pre","image5.jpg","Classical_2.mp3","Both"
4849,"computer","42","1262.2999997139","2","Pre","image15.jpg","Cut_jazz_19.mp3","Music"
4849,"computer","43","3077.89999961853","7","Pre","image39.jpg","Cut_jazz_7.mp3","Both"
4849,"computer","44","3392.39999961853","2","Pre","image4.jpg","Cut_jazz_5.mp3","Both"
4849,"computer","45","1240.2000002861","1","Pre","image47.jpg","Classical_4.mp3","Both"
4849,"computer","46","2140.30000019073","9","Pre","image3.jpg","Classical_15.mp3","Both"
4849,"computer","47","1801.69999980927","6","Pre","image12.jpg","Cut_jazz_2.mp3","Image"
4849,"computer","48","922.900000095367","2","Pre","image36.jpg","Cut_jazz_5.mp3","Music"
4849,"computer","49","1556.40000009537","4","Pre","image10.jpg","Classical_19.mp3","Image"
4849,"computer","50","2198.69999980927","3","Pre","image34.jpg","Classical_7.mp3","Both"
4849,"computer","51","2999.80000019073","7","Pre","image52.jpg","Classical_1.mp3","Both"
4849,"computer","52","2374.90000009537","6","Pre","image39.jpg","Cut_jazz_5.mp3","Image"
4849,"computer","53","2285.19999980927","2","Pre","image52.jpg","Classical_2.mp3","Music"
4849,"computer","54","2131.19999980927","6","Pre","image34.jpg","Classical_8.mp3","Music"
4849,"computer","55","1414.2000002861","3","Pre","image12.jpg","Cut_jazz_1.mp3","Music"
4849,"computer","56","1328.90000009537","1","Pre","image34.jpg","Classical_6.mp3","Image"
4849,"computer","57","940.599999904633","1","Pre","image15.jpg","Cut_jazz_14.mp3","Image"
4737,"computer","4","1440.19999998808","7","Post","image17.jpg","Cut_jazz_7.mp3","Music"
4737,"computer","5","1305.60000002384","1","Post","image36.jpg","Classical_2.mp3","Image"
4737,"computer","6","1229.80000001192","4","Post","image20.jpg","Cut_jazz_2.mp3","Music"
4737,"computer","7","1373","5","Post","image35.jpg","Cut_jazz_16.mp3","Music"
4737,"computer","8","1690.79999995232","1","Post","image1.jpg","Classical_17.mp3","Image"
4737,"computer","9","1895.39999997616","2","Post","image47.jpg","Classical_7.mp3","Image"
4737,"computer","10","1964","7","Post","image17.jpg","Cut_jazz_10.mp3","Image"
4737,"computer","11","2404.69999998808","8","Post","image12.jpg","Classical_17.mp3","Music"
4737,"computer","12","1297.19999998808","1","Post","image15.jpg","Cut_jazz_5.mp3","Image"
4737,"computer","13","1533.20000004768","7","Post","image36.jpg","Classical_1.mp3","Music"
4737,"computer","14","1812.40000003576","1","Post","image15.jpg","Cut_jazz_7.mp3","Both"
4737,"computer","15","1667.70000004768","6","Post","image52.jpg","Classical_8.mp3","Image"
4737,"computer","16","3805.70000004768","2","Post","image35.jpg","Cut_jazz_19.mp3","Image"
4737,"computer","17","5446.59999996424","4","Post","image3.jpg","Cut_jazz_2.mp3","Image"
4737,"computer","18","1646.80000001192","5","Post","image14.jpg","Cut_jazz_7.mp3","Image"
4737,"computer","19","1440.59999996424","9","Post","image52.jpg","Classical_7.mp3","Music"
4737,"computer","20","1404.39999997616","2","Post","image1.jpg","Classical_18.mp3","Both"
4737,"computer","21","1263.19999998808","7","Post","image2.jpg","Cut_jazz_2.mp3","Both"
4737,"computer","22","1929.5","3","Post","image47.jpg","Classical_8.mp3","Both"
4737,"computer","23","1961.19999998808","4","Post","image12.jpg","Classical_15.mp3","Both"
4737,"computer","24","1568.40000003576","9","Post","image20.jpg","Classical_19.mp3","Image"
4737,"computer","25","2185.30000001192","6","Post","image52.jpg","Classical_6.mp3","Both"
4737,"computer","26","1890.39999997616","2","Post","image4.jpg","Classical_1.mp3","Both"
4737,"computer","27","2790","6","Post","image2.jpg","Classical_19.mp3","Music"
4737,"computer","28","1383.5","8","Post","image5.jpg","Classical_8.mp3","Music"
4737,"computer","29","2589.60000002384","2","Post","image34.jpg","Cut_jazz_16.mp3","Both"
4737,"computer","30","1077.40000003576","1","Post","image4.jpg","Classical_4.mp3","Image"
4737,"computer","31","2714.59999996424","4","Post","image33.jpg","Cut_jazz_19.mp3","Both"
4737,"computer","32","1058.69999998808","8","Post","image3.jpg","Classical_19.mp3","Both"
4737,"computer","33","912.300000011921","8","Post","image14.jpg","Cut_jazz_10.mp3","Both"
4737,"computer","34","1212.70000004768","9","Post","image39.jpg","Classical_4.mp3","Music"
4737,"computer","35","1563.69999998808","2","Post","image10.jpg","Classical_17.mp3","Both"
4737,"computer","36","2151.10000002384","3","Post","image33.jpg","Cut_jazz_14.mp3","Music"
4737,"computer","37","3972.19999998808","2","Post","image36.jpg","Classical_4.mp3","Both"
4737,"computer","38","975.5","1","Post","image34.jpg","Cut_jazz_14.mp3","Image"
4737,"computer","39","781.599999964237","1","Post","image12.jpg","Classical_18.mp3","Image"
4737,"computer","40","1467.59999996424","6","Post","image34.jpg","Cut_jazz_19.mp3","Music"
4737,"computer","41","1300.80000001192","9","Post","image2.jpg","Cut_jazz_1.mp3","Image"
4737,"computer","42","1129.5","9","Post","image1.jpg","Classical_15.mp3","Music"
4737,"computer","43","1155.5","5","Post","image14.jpg","Cut_jazz_5.mp3","Music"
4737,"computer","44","1472.60000002384","7","Post","image5.jpg","Classical_7.mp3","Both"
4737,"computer","45","3320.89999997616","8","Post","image39.jpg","Classical_1.mp3","Image"
4737,"computer","46","901","9","Post","image5.jpg","Classical_6.mp3","Image"
4737,"computer","47","1411.69999998808","4","Post","image10.jpg","Classical_18.mp3","Music"
4737,"computer","48","2122.80000001192","5","Post","image3.jpg","Cut_jazz_1.mp3","Music"
4737,"computer","49","1057.40000003576","1","Post","image33.jpg","Cut_jazz_16.mp3","Image"
4737,"computer","50","1515.70000004768","6","Post","image39.jpg","Classical_2.mp3","Both"
4737,"computer","51","1245","4","Post","image35.jpg","Cut_jazz_14.mp3","Both"
4737,"computer","52","1331.89999997616","2","Post","image20.jpg","Cut_jazz_1.mp3","Both"
4737,"computer","53","1103.19999998808","1","Post","image17.jpg","Cut_jazz_5.mp3","Both"
4737,"computer","54","1452.69999998808","3","Post","image15.jpg","Cut_jazz_10.mp3","Music"
4737,"computer","55","1069.80000001192","6","Post","image4.jpg","Classical_2.mp3","Music"
4737,"computer","56","936.400000035763","1","Post","image10.jpg","Classical_15.mp3","Image"
4737,"computer","57","1993.69999998808","6","Post","image47.jpg","Classical_6.mp3","Music"
4737,"computer","4","2644.69999998808","7","Pre","image52.jpg","Cut_jazz_1.mp3","Music"
4737,"computer","5","1187.69999998808","9","Pre","image2.jpg","Classical_17.mp3","Image"
4737,"computer","6","1351.5","6","Pre","image5.jpg","Cut_jazz_1.mp3","Both"
4737,"computer","7","1272.89999997616","3","Pre","image15.jpg","Classical_4.mp3","Music"
4737,"computer","8","1335.30000001192","6","Pre","image35.jpg","Classical_7.mp3","Music"
4737,"computer","9","3048.19999998808","6","Pre","image2.jpg","Classical_15.mp3","Music"
4737,"computer","10","2581.60000002384","1","Pre","image15.jpg","Classical_1.mp3","Image"
4737,"computer","11","5219.29999995232","7","Pre","image39.jpg","Cut_jazz_16.mp3","Both"
4737,"computer","12","16421.8999999762","9","Pre","image20.jpg","Classical_15.mp3","Image"
4737,"computer","13","3802.19999998808","5","Pre","image4.jpg","Cut_jazz_16.mp3","Music"
4737,"computer","14","1733.59999996424","6","Pre","image47.jpg","Cut_jazz_2.mp3","Both"
4737,"computer","15","1438.70000004768","3","Pre","image20.jpg","Classical_18.mp3","Music"
4737,"computer","16","4385.59999996424","4","Pre","image47.jpg","Classical_19.mp3","Music"
4737,"computer","17","11707.5","3","Pre","image10.jpg","Cut_jazz_7.mp3","Both"
4737,"computer","18","1539","9","Pre","image5.jpg","Classical_19.mp3","Image"
4737,"computer","19","1147.10000002384","1","Pre","image4.jpg","Cut_jazz_14.mp3","Both"
4737,"computer","20","1352.10000002384","9","Pre","image14.jpg","Classical_2.mp3","Image"
4737,"computer","21","1604.30000001192","1","Pre","image1.jpg","Cut_jazz_10.mp3","Both"
4737,"computer","22","2689.89999997616","6","Pre","image39.jpg","Cut_jazz_19.mp3","Music"
4737,"computer","23","1194.30000001192","3","Pre","image35.jpg","Classical_8.mp3","Image"
4737,"computer","24","1236.5","7","Pre","image39.jpg","Cut_jazz_14.mp3","Image"
4737,"computer","25","1807.5","7","Pre","image17.jpg","Classical_2.mp3","Music"
4737,"computer","26","5280.19999998808","1","Pre","image12.jpg","Cut_jazz_10.mp3","Image"
4737,"computer","27","1230.5","5","Pre","image52.jpg","Classical_19.mp3","Both"
4737,"computer","28","1411.60000002384","1","Pre","image10.jpg","Cut_jazz_5.mp3","Image"
4737,"computer","29","2108.89999997616","1","Pre","image36.jpg","Cut_jazz_19.mp3","Both"
4737,"computer","30","1920.69999998808","2","Pre","image33.jpg","Classical_7.mp3","Image"
4737,"computer","31","1524.70000004768","1","Pre","image1.jpg","Cut_jazz_7.mp3","Image"
4737,"computer","32","5593.30000001192","6","Pre","image17.jpg","Classical_1.mp3","Both"
4737,"computer","33","12758","8","Pre","image20.jpg","Classical_17.mp3","Both"
4737,"computer","34","1433.60000002384","1","Pre","image34.jpg","Classical_6.mp3","Image"
4737,"computer","35","1468.5","2","Pre","image15.jpg","Classical_2.mp3","Both"
4737,"computer","36","1445.79999995232","2","Pre","image33.jpg","Classical_6.mp3","Music"
4737,"computer","37","1172.90000003576","1","Pre","image12.jpg","Cut_jazz_5.mp3","Both"
4737,"computer","38","3536.09999996424","4","Pre","image47.jpg","Cut_jazz_1.mp3","Image"
4737,"computer","39","3163.80000001192","7","Pre","image14.jpg","Classical_1.mp3","Music"
4737,"computer","40","1017.59999996424","6","Pre","image35.jpg","Classical_6.mp3","Both"
4737,"computer","41","1480","8","Pre","image3.jpg","Classical_18.mp3","Image"
4737,"computer","42","1116.5","8","Pre","image14.jpg","Classical_4.mp3","Both"
4737,"computer","43","2032.69999998808","7","Pre","image52.jpg","Cut_jazz_2.mp3","Image"
4737,"computer","44","947.899999976158","5","Pre","image2.jpg","Classical_18.mp3","Both"
4737,"computer","45","956.600000023842","8","Pre","image3.jpg","Classical_17.mp3","Music"
4737,"computer","46","1451.89999997616","8","Pre","image17.jpg","Classical_4.mp3","Image"
4737,"computer","47","1301.89999997616","7","Pre","image34.jpg","Classical_8.mp3","Music"
4737,"computer","48","1353.80000001192","8","Pre","image3.jpg","Classical_15.mp3","Both"
4737,"computer","49","1353.30000001192","2","Pre","image33.jpg","Classical_8.mp3","Both"
4737,"computer","50","792.900000035763","1","Pre","image12.jpg","Cut_jazz_7.mp3","Music"
4737,"computer","51","1328.10000002384","1","Pre","image4.jpg","Cut_jazz_19.mp3","Image"
4737,"computer","52","1514.39999997616","2","Pre","image34.jpg","Classical_7.mp3","Both"
4737,"computer","53","1352.90000003576","7","Pre","image5.jpg","Cut_jazz_2.mp3","Music"
4737,"computer","54","2565.40000003576","5","Pre","image36.jpg","Cut_jazz_16.mp3","Image"
4737,"computer","55","1854.30000001192","6","Pre","image1.jpg","Cut_jazz_5.mp3","Music"
4737,"computer","56","1141.5","5","Pre","image36.jpg","Cut_jazz_14.mp3","Music"
4737,"computer","57","2933","6","Pre","image10.jpg","Cut_jazz_10.mp3","Music"
4790,"computer","4","2450.29999999702","7","Post","image17.jpg","Cut_jazz_7.mp3","Music"
4790,"computer","5","2072.90000000596","6","Post","image36.jpg","Classical_2.mp3","Image"
4790,"computer","6","1856.5","5","Post","image20.jpg","Cut_jazz_2.mp3","Music"
4790,"computer","7","3422.09999999404","7","Post","image35.jpg","Cut_jazz_16.mp3","Music"
4790,"computer","8","3414.79999999702","3","Post","image1.jpg","Classical_17.mp3","Image"
4790,"computer","9","1519.10000000149","1","Post","image47.jpg","Classical_7.mp3","Image"
4790,"computer","10","1667.10000000149","2","Post","image17.jpg","Cut_jazz_10.mp3","Image"
4790,"computer","11","1432.39999999851","6","Post","image12.jpg","Classical_17.mp3","Music"
4790,"computer","12","2550.09999999404","2","Post","image15.jpg","Cut_jazz_5.mp3","Image"
4790,"computer","13","1160.70000000298","6","Post","image36.jpg","Classical_1.mp3","Music"
4790,"computer","14","2577.30000000447","6","Post","image15.jpg","Cut_jazz_7.mp3","Both"
4790,"computer","15","1319","8","Post","image52.jpg","Classical_8.mp3","Image"
4790,"computer","16","1427.39999999851","4","Post","image35.jpg","Cut_jazz_19.mp3","Image"
4790,"computer","17","2139.59999999404","4","Post","image3.jpg","Cut_jazz_2.mp3","Image"
4790,"computer","18","1019.20000000298","4","Post","image14.jpg","Cut_jazz_7.mp3","Image"
4790,"computer","19","1817.80000000447","6","Post","image52.jpg","Classical_7.mp3","Music"
4790,"computer","20","3782","6","Post","image1.jpg","Classical_18.mp3","Both"
4790,"computer","21","1313.20000000298","6","Post","image2.jpg","Cut_jazz_2.mp3","Both"
4790,"computer","22","1845.89999999851","4","Post","image47.jpg","Classical_8.mp3","Both"
4790,"computer","23","1283","8","Post","image12.jpg","Classical_15.mp3","Both"
4790,"computer","24","1426","7","Post","image20.jpg","Classical_19.mp3","Image"
4790,"computer","25","1833.20000000298","7","Post","image52.jpg","Classical_6.mp3","Both"
4790,"computer","26","2421.29999999702","7","Post","image4.jpg","Classical_1.mp3","Both"
4790,"computer","27","1651.29999999702","6","Post","image2.jpg","Classical_19.mp3","Music"
4790,"computer","28","1160.09999999404","8","Post","image5.jpg","Classical_8.mp3","Music"
4790,"computer","29","1480.79999999702","5","Post","image34.jpg","Cut_jazz_16.mp3","Both"
4790,"computer","30","4620.79999999702","7","Post","image4.jpg","Classical_4.mp3","Image"
4790,"computer","31","2059.39999999851","5","Post","image33.jpg","Cut_jazz_19.mp3","Both"
4790,"computer","32","1306.39999999851","4","Post","image3.jpg","Classical_19.mp3","Both"
4790,"computer","33","2120","5","Post","image14.jpg","Cut_jazz_10.mp3","Both"
4790,"computer","34","3025.29999999702","3","Post","image39.jpg","Classical_4.mp3","Music"
4790,"computer","35","1861.5","5","Post","image10.jpg","Classical_17.mp3","Both"
4790,"computer","36","1274.69999999553","6","Post","image33.jpg","Cut_jazz_14.mp3","Music"
4790,"computer","37","1206.69999999553","5","Post","image36.jpg","Classical_4.mp3","Both"
4790,"computer","38","3931.40000000596","4","Post","image34.jpg","Cut_jazz_14.mp3","Image"
4790,"computer","39","2689.5","5","Post","image12.jpg","Classical_18.mp3","Image"
4790,"computer","40","1339.5","6","Post","image34.jpg","Cut_jazz_19.mp3","Music"
4790,"computer","41","2897.10000000149","7","Post","image2.jpg","Cut_jazz_1.mp3","Image"
4790,"computer","42","1221.39999999851","7","Post","image1.jpg","Classical_15.mp3","Music"
4790,"computer","43","1361.29999999702","6","Post","image14.jpg","Cut_jazz_5.mp3","Music"
4790,"computer","44","1126.19999999553","7","Post","image5.jpg","Classical_7.mp3","Both"
4790,"computer","45","1232.39999999851","7","Post","image39.jpg","Classical_1.mp3","Image"
4790,"computer","46","1341.79999999702","7","Post","image5.jpg","Classical_6.mp3","Image"
4790,"computer","47","3046.60000000149","5","Post","image10.jpg","Classical_18.mp3","Music"
4790,"computer","48","1783.89999999851","1","Post","image3.jpg","Cut_jazz_1.mp3","Music"
4790,"computer","49","2109.09999999404","3","Post","image33.jpg","Cut_jazz_16.mp3","Image"
4790,"computer","50","1466.5","7","Post","image39.jpg","Classical_2.mp3","Both"
4790,"computer","51","1616.80000000447","7","Post","image35.jpg","Cut_jazz_14.mp3","Both"
4790,"computer","52","1950.30000000447","1","Post","image20.jpg","Cut_jazz_1.mp3","Both"
4790,"computer","53","1506.69999999553","4","Post","image17.jpg","Cut_jazz_5.mp3","Both"
4790,"computer","54","2125.40000000596","7","Post","image15.jpg","Cut_jazz_10.mp3","Music"
4790,"computer","55","1106.89999999851","7","Post","image4.jpg","Classical_2.mp3","Music"
4790,"computer","56","1668.69999999553","6","Post","image10.jpg","Classical_15.mp3","Image"
4790,"computer","57","1197.10000000149","6","Post","image47.jpg","Classical_6.mp3","Music"
4790,"computer","4","1503.80000000447","1","Pre","image52.jpg","Cut_jazz_1.mp3","Music"
4790,"computer","5","1683.60000000149","7","Pre","image2.jpg","Classical_17.mp3","Image"
4790,"computer","6","1443","1","Pre","image5.jpg","Cut_jazz_1.mp3","Both"
4790,"computer","7","1675","4","Pre","image15.jpg","Classical_4.mp3","Music"
4790,"computer","8","1803.89999999851","6","Pre","image35.jpg","Classical_7.mp3","Music"
4790,"computer","9","2002.40000000596","8","Pre","image2.jpg","Classical_15.mp3","Music"
4790,"computer","10","2132.69999999553","2","Pre","image15.jpg","Classical_1.mp3","Image"
4790,"computer","11","6699.19999999553","6","Pre","image39.jpg","Cut_jazz_16.mp3","Both"
4790,"computer","12","1773.5","7","Pre","image20.jpg","Classical_15.mp3","Image"
4790,"computer","13","1793.59999999404","6","Pre","image4.jpg","Cut_jazz_16.mp3","Music"
4790,"computer","14","2050.5","3","Pre","image47.jpg","Cut_jazz_2.mp3","Both"
4790,"computer","15","1799.89999999851","6","Pre","image20.jpg","Classical_18.mp3","Music"
4790,"computer","16","1794.90000000596","7","Pre","image47.jpg","Classical_19.mp3","Music"
4790,"computer","17","1485.89999999851","7","Pre","image10.jpg","Cut_jazz_7.mp3","Both"
4790,"computer","18","1320.89999999851","7","Pre","image5.jpg","Classical_19.mp3","Image"
4790,"computer","19","5327.5","7","Pre","image4.jpg","Cut_jazz_14.mp3","Both"
4790,"computer","20","5484.10000000149","4","Pre","image14.jpg","Classical_2.mp3","Image"
4790,"computer","21","5309.40000000596","4","Pre","image1.jpg","Cut_jazz_10.mp3","Both"
4790,"computer","22","3334.29999999702","4","Pre","image39.jpg","Cut_jazz_19.mp3","Music"
4790,"computer","23","1384","3","Pre","image35.jpg","Classical_8.mp3","Image"
4790,"computer","24","1620.20000000298","7","Pre","image39.jpg","Cut_jazz_14.mp3","Image"
4790,"computer","25","1372.69999999553","6","Pre","image17.jpg","Classical_2.mp3","Music"
4790,"computer","26","1358.39999999851","5","Pre","image12.jpg","Cut_jazz_10.mp3","Image"
4790,"computer","27","1831.19999999553","5","Pre","image52.jpg","Classical_19.mp3","Both"
4790,"computer","28","2369.29999999702","6","Pre","image10.jpg","Cut_jazz_5.mp3","Image"
4790,"computer","29","1442.89999999851","7","Pre","image36.jpg","Cut_jazz_19.mp3","Both"
4790,"computer","30","3174.20000000298","3","Pre","image33.jpg","Classical_7.mp3","Image"
4790,"computer","31","1412.89999999851","3","Pre","image1.jpg","Cut_jazz_7.mp3","Image"
4790,"computer","32","3287.39999999851","5","Pre","image17.jpg","Classical_1.mp3","Both"
4790,"computer","33","3343","6","Pre","image20.jpg","Classical_17.mp3","Both"
4790,"computer","34","1071.60000000149","3","Pre","image34.jpg","Classical_6.mp3","Image"
4790,"computer","35","3241.09999999404","4","Pre","image15.jpg","Classical_2.mp3","Both"
4790,"computer","36","2392.89999999851","7","Pre","image33.jpg","Classical_6.mp3","Music"
4790,"computer","37","1799.60000000149","3","Pre","image12.jpg","Cut_jazz_5.mp3","Both"
4790,"computer","38","2673.5","1","Pre","image47.jpg","Cut_jazz_1.mp3","Image"
4790,"computer","39","2647.69999999553","6","Pre","image14.jpg","Classical_1.mp3","Music"
4790,"computer","40","1368.79999999702","6","Pre","image35.jpg","Classical_6.mp3","Both"
4790,"computer","41","1473.60000000149","2","Pre","image3.jpg","Classical_18.mp3","Image"
4790,"computer","42","1353.70000000298","2","Pre","image14.jpg","Classical_4.mp3","Both"
4790,"computer","43","3264.30000000447","7","Pre","image52.jpg","Cut_jazz_2.mp3","Image"
4790,"computer","44","2500.69999999553","7","Pre","image2.jpg","Classical_18.mp3","Both"
4790,"computer","45","1117.30000000447","8","Pre","image3.jpg","Classical_17.mp3","Music"
4790,"computer","46","1618.29999999702","2","Pre","image17.jpg","Classical_4.mp3","Image"
4790,"computer","47","4379","7","Pre","image34.jpg","Classical_8.mp3","Music"
4790,"computer","48","4770.39999999851","7","Pre","image3.jpg","Classical_15.mp3","Both"
4790,"computer","49","1695.20000000298","4","Pre","image33.jpg","Classical_8.mp3","Both"
4790,"computer","50","5183.30000000447","8","Pre","image12.jpg","Cut_jazz_7.mp3","Music"
4790,"computer","51","3200.89999999851","5","Pre","image4.jpg","Cut_jazz_19.mp3","Image"
4790,"computer","52","2009.60000000149","5","Pre","image34.jpg","Classical_7.mp3","Both"
4790,"computer","53","1334.60000000149","6","Pre","image5.jpg","Cut_jazz_2.mp3","Music"
4790,"computer","54","3714.40000000596","6","Pre","image36.jpg","Cut_jazz_16.mp3","Image"
4790,"computer","55","5997.5","6","Pre","image1.jpg","Cut_jazz_5.mp3","Music"
4790,"computer","56","1719.5","7","Pre","image36.jpg","Cut_jazz_14.mp3","Music"
4790,"computer","57","3139","7","Pre","image10.jpg","Cut_jazz_10.mp3","Music"
4820,"computer","4","3271.40000000224","3","Post","image17.jpg","Cut_jazz_7.mp3","Music"
4820,"computer","5","4786.29999999702","4","Post","image36.jpg","Classical_2.mp3","Image"
4820,"computer","6","1924","5","Post","image20.jpg","Cut_jazz_2.mp3","Music"
4820,"computer","7","1004.90000000224","6","Post","image35.jpg","Cut_jazz_16.mp3","Music"
4820,"computer","8","862.699999999255","7","Post","image1.jpg","Classical_17.mp3","Image"
4820,"computer","9","1115.89999999851","2","Post","image47.jpg","Classical_7.mp3","Image"
4820,"computer","10","1230.29999999702","5","Post","image17.jpg","Cut_jazz_10.mp3","Image"
4820,"computer","11","2938.5","7","Post","image12.jpg","Classical_17.mp3","Music"
4820,"computer","12","2347.59999999776","7","Post","image15.jpg","Cut_jazz_5.mp3","Image"
4820,"computer","13","2455.19999999925","3","Post","image36.jpg","Classical_1.mp3","Music"
4820,"computer","14","1892.20000000298","6","Post","image15.jpg","Cut_jazz_7.mp3","Both"
4820,"computer","15","917.699999999255","6","Post","image52.jpg","Classical_8.mp3","Image"
4820,"computer","16","1698.69999999925","6","Post","image35.jpg","Cut_jazz_19.mp3","Image"
4820,"computer","17","4031.79999999702","3","Post","image3.jpg","Cut_jazz_2.mp3","Image"
4820,"computer","18","5758.69999999925","6","Post","image14.jpg","Cut_jazz_7.mp3","Image"
4820,"computer","19","4614.69999999925","3","Post","image52.jpg","Classical_7.mp3","Music"
4820,"computer","20","1931.19999999925","6","Post","image1.jpg","Classical_18.mp3","Both"
4820,"computer","21","4250.30000000075","3","Post","image2.jpg","Cut_jazz_2.mp3","Both"
4820,"computer","22","1920.80000000075","6","Post","image47.jpg","Classical_8.mp3","Both"
4820,"computer","23","1583.19999999925","5","Post","image12.jpg","Classical_15.mp3","Both"
4820,"computer","24","2573.80000000075","3","Post","image20.jpg","Classical_19.mp3","Image"
4820,"computer","25","3570.70000000298","4","Post","image52.jpg","Classical_6.mp3","Both"
4820,"computer","26","1949.90000000224","3","Post","image4.jpg","Classical_1.mp3","Both"
4820,"computer","27","1429","6","Post","image2.jpg","Classical_19.mp3","Music"
4820,"computer","28","3120.89999999851","7","Post","image5.jpg","Classical_8.mp3","Music"
4820,"computer","29","1144.19999999925","4","Post","image34.jpg","Cut_jazz_16.mp3","Both"
4820,"computer","30","1346.89999999851","3","Post","image4.jpg","Classical_4.mp3","Image"
4820,"computer","31","1041.5","4","Post","image33.jpg","Cut_jazz_19.mp3","Both"
4820,"computer","32","1371.69999999925","4","Post","image3.jpg","Classical_19.mp3","Both"
4820,"computer","33","1639.29999999702","6","Post","image14.jpg","Cut_jazz_10.mp3","Both"
4820,"computer","34","3888.90000000224","3","Post","image39.jpg","Classical_4.mp3","Music"
4820,"computer","35","931.60000000149","2","Post","image10.jpg","Classical_17.mp3","Both"
4820,"computer","36","6964.79999999702","4","Post","image33.jpg","Cut_jazz_14.mp3","Music"
4820,"computer","37","3148.5","7","Post","image36.jpg","Classical_4.mp3","Both"
4820,"computer","38","1838.19999999925","4","Post","image34.jpg","Cut_jazz_14.mp3","Image"
4820,"computer","39","6279.40000000224","3","Post","image12.jpg","Classical_18.mp3","Image"
4820,"computer","40","3373.10000000149","3","Post","image34.jpg","Cut_jazz_19.mp3","Music"
4820,"computer","41","777.400000002235","4","Post","image2.jpg","Cut_jazz_1.mp3","Image"
4820,"computer","42","711.5","2","Post","image1.jpg","Classical_15.mp3","Music"
4820,"computer","43","1058.5","6","Post","image14.jpg","Cut_jazz_5.mp3","Music"
4820,"computer","44","1810.5","7","Post","image5.jpg","Classical_7.mp3","Both"
4820,"computer","45","1671.39999999851","6","Post","image39.jpg","Classical_1.mp3","Image"
4820,"computer","46","484.800000000745","3","Post","image5.jpg","Classical_6.mp3","Image"
4820,"computer","47","5237.40000000224","3","Post","image10.jpg","Classical_18.mp3","Music"
4820,"computer","48","2628.5","4","Post","image3.jpg","Cut_jazz_1.mp3","Music"
4820,"computer","49","8086.79999999702","3","Post","image33.jpg","Cut_jazz_16.mp3","Image"
4820,"computer","50","2269.09999999776","4","Post","image39.jpg","Classical_2.mp3","Both"
4820,"computer","51","6597.89999999851","7","Post","image35.jpg","Cut_jazz_14.mp3","Both"
4820,"computer","52","1194.80000000075","6","Post","image20.jpg","Cut_jazz_1.mp3","Both"
4820,"computer","53","5882.10000000149","4","Post","image17.jpg","Cut_jazz_5.mp3","Both"
4820,"computer","54","858.800000000745","6","Post","image15.jpg","Cut_jazz_10.mp3","Music"
4820,"computer","55","1286.10000000149","2","Post","image4.jpg","Classical_2.mp3","Music"
4820,"computer","56","13151.3000000007","3","Post","image10.jpg","Classical_15.mp3","Image"
4820,"computer","57","1635","4","Post","image47.jpg","Classical_6.mp3","Music"
4820,"computer","4","2507","3","Pre","image52.jpg","Cut_jazz_1.mp3","Music"
4820,"computer","5","1313.80000000075","6","Pre","image2.jpg","Classical_17.mp3","Image"
4820,"computer","6","1493.10000000149","5","Pre","image5.jpg","Cut_jazz_1.mp3","Both"
4820,"computer","7","1918.60000000149","3","Pre","image15.jpg","Classical_4.mp3","Music"
4820,"computer","8","5141.60000000149","4","Pre","image35.jpg","Classical_7.mp3","Music"
4820,"computer","9","2072.69999999925","6","Pre","image2.jpg","Classical_15.mp3","Music"
4820,"computer","10","3605","7","Pre","image15.jpg","Classical_1.mp3","Image"
4820,"computer","11","1769.59999999776","3","Pre","image39.jpg","Cut_jazz_16.mp3","Both"
4820,"computer","12","7139.69999999925","6","Pre","image20.jpg","Classical_15.mp3","Image"
4820,"computer","13","1346.5","4","Pre","image4.jpg","Cut_jazz_16.mp3","Music"
4820,"computer","14","4762.80000000075","3","Pre","image47.jpg","Cut_jazz_2.mp3","Both"
4820,"computer","15","1939.19999999925","7","Pre","image20.jpg","Classical_18.mp3","Music"
4820,"computer","16","1212.80000000075","4","Pre","image47.jpg","Classical_19.mp3","Music"
4820,"computer","17","1689.5","4","Pre","image10.jpg","Cut_jazz_7.mp3","Both"
4820,"computer","18","3303.39999999851","3","Pre","image5.jpg","Classical_19.mp3","Image"
4820,"computer","19","2476","7","Pre","image4.jpg","Cut_jazz_14.mp3","Both"
4820,"computer","20","1922.5","3","Pre","image14.jpg","Classical_2.mp3","Image"
4820,"computer","21","2366.89999999851","6","Pre","image1.jpg","Cut_jazz_10.mp3","Both"
4820,"computer","22","4799.30000000075","8","Pre","image39.jpg","Cut_jazz_19.mp3","Music"
4820,"computer","23","4166.39999999851","4","Pre","image35.jpg","Classical_8.mp3","Image"
4820,"computer","24","3365.19999999925","6","Pre","image39.jpg","Cut_jazz_14.mp3","Image"
4820,"computer","25","1127.90000000224","7","Pre","image17.jpg","Classical_2.mp3","Music"
4820,"computer","26","1135.30000000075","8","Pre","image12.jpg","Cut_jazz_10.mp3","Image"
4820,"computer","27","1296.89999999851","7","Pre","image52.jpg","Classical_19.mp3","Both"
4820,"computer","28","1422.69999999925","3","Pre","image10.jpg","Cut_jazz_5.mp3","Image"
4820,"computer","29","1284.69999999925","4","Pre","image36.jpg","Cut_jazz_19.mp3","Both"
4820,"computer","30","3382.30000000075","3","Pre","image33.jpg","Classical_7.mp3","Image"
4820,"computer","31","4474.69999999925","2","Pre","image1.jpg","Cut_jazz_7.mp3","Image"
4820,"computer","32","3313.10000000149","7","Pre","image17.jpg","Classical_1.mp3","Both"
4820,"computer","33","1383.80000000075","5","Pre","image20.jpg","Classical_17.mp3","Both"
4820,"computer","34","3042.60000000149","2","Pre","image34.jpg","Classical_6.mp3","Image"
4820,"computer","35","1596.5","4","Pre","image15.jpg","Classical_2.mp3","Both"
4820,"computer","36","1443.30000000075","4","Pre","image33.jpg","Classical_6.mp3","Music"
4820,"computer","37","1701.79999999702","8","Pre","image12.jpg","Cut_jazz_5.mp3","Both"
4820,"computer","38","4681.89999999851","3","Pre","image47.jpg","Cut_jazz_1.mp3","Image"
4820,"computer","39","2132.60000000149","7","Pre","image14.jpg","Classical_1.mp3","Music"
4820,"computer","40","4948.30000000075","4","Pre","image35.jpg","Classical_6.mp3","Both"
4820,"computer","41","2439.30000000075","6","Pre","image3.jpg","Classical_18.mp3","Image"
4820,"computer","42","1155.5","6","Pre","image14.jpg","Classical_4.mp3","Both"
4820,"computer","43","3578.5","6","Pre","image52.jpg","Cut_jazz_2.mp3","Image"
4820,"computer","44","9066.39999999851","5","Pre","image2.jpg","Classical_18.mp3","Both"
4820,"computer","45","2842.20000000298","4","Pre","image3.jpg","Classical_17.mp3","Music"
4820,"computer","46","10609.8000000007","7","Pre","image17.jpg","Classical_4.mp3","Image"
4820,"computer","47","1414.40000000224","6","Pre","image34.jpg","Classical_8.mp3","Music"
4820,"computer","48","1832.10000000149","5","Pre","image3.jpg","Classical_15.mp3","Both"
4820,"computer","49","3677.5","3","Pre","image33.jpg","Classical_8.mp3","Both"
4820,"computer","50","1192.69999999925","7","Pre","image12.jpg","Cut_jazz_7.mp3","Music"
4820,"computer","51","13844.3999999985","6","Pre","image4.jpg","Cut_jazz_19.mp3","Image"
4820,"computer","52","20396.9000000022","4","Pre","image34.jpg","Classical_7.mp3","Both"
4820,"computer","53","4090","6","Pre","image5.jpg","Cut_jazz_2.mp3","Music"
4820,"computer","54","12079.1999999993","4","Pre","image36.jpg","Cut_jazz_16.mp3","Image"
4820,"computer","55","12533","6","Pre","image1.jpg","Cut_jazz_5.mp3","Music"
4820,"computer","56","3574.80000000075","4","Pre","image36.jpg","Cut_jazz_14.mp3","Music"
4820,"computer","57","6146.10000000149","5","Pre","image10.jpg","Cut_jazz_10.mp3","Music"
4871,"computer","4","1405.5","2","Pre","image1.jpg","Classical_2.mp3","Image"
4871,"computer","5","993.800000011921","4","Pre","image47.jpg","Cut_jazz_7.mp3","Image"
4871,"computer","6","1265","6","Pre","image3.jpg","Classical_6.mp3","Both"
4871,"computer","7","2293.80000001192","1","Pre","image33.jpg","Cut_jazz_1.mp3","Image"
4871,"computer","8","2872.19999998808","3","Pre","image39.jpg","Cut_jazz_16.mp3","Both"
4871,"computer","9","1293","1","Pre","image15.jpg","Classical_17.mp3","Both"
4871,"computer","10","1822.79999998212","3","Pre","image12.jpg","Classical_4.mp3","Image"
4871,"computer","11","5356.39999997616","2","Pre","image17.jpg","Classical_15.mp3","Both"
4871,"computer","12","4287.5","2","Pre","image47.jpg","Cut_jazz_5.mp3","Music"
4871,"computer","13","2649.70000001788","7","Pre","image36.jpg","Cut_jazz_14.mp3","Music"
4871,"computer","14","2557.09999999404","7","Pre","image15.jpg","Classical_18.mp3","Music"
4871,"computer","15","2885.59999999404","9","Pre","image14.jpg","Classical_17.mp3","Image"
4871,"computer","16","1657.90000000596","7","Pre","image35.jpg","Cut_jazz_2.mp3","Image"
4871,"computer","17","1078.70000001788","5","Pre","image2.jpg","Classical_7.mp3","Image"
4871,"computer","18","1566.30000001192","4","Pre","image20.jpg","Classical_6.mp3","Image"
4871,"computer","19","1914.20000001788","9","Pre","image5.jpg","Cut_jazz_7.mp3","Both"
4871,"computer","20","4381","6","Pre","image20.jpg","Classical_7.mp3","Both"
4871,"computer","21","888.699999988079","6","Pre","image33.jpg","Cut_jazz_2.mp3","Both"
4871,"computer","22","438.699999988079","6","Pre","image12.jpg","Classical_1.mp3","Both"
4871,"computer","23","999.09999999404","9","Pre","image33.jpg","Classical_19.mp3","Music"
4871,"computer","24","1299.59999999404","2","Pre","image39.jpg","Cut_jazz_14.mp3","Image"
4871,"computer","25","511","2","Pre","image5.jpg","Cut_jazz_10.mp3","Music"
4871,"computer","26","4563","2","Pre","image2.jpg","Classical_6.mp3","Music"
4871,"computer","27","4894.30000001192","6","Pre","image3.jpg","Classical_8.mp3","Image"
4871,"computer","28","2430.70000001788","4","Pre","image36.jpg","Cut_jazz_19.mp3","Both"
4871,"computer","29","1950","2","Pre","image17.jpg","Classical_18.mp3","Image"
4871,"computer","30","2471.09999999404","5","Pre","image52.jpg","Cut_jazz_5.mp3","Both"
4871,"computer","31","4575.59999999404","5","Pre","image35.jpg","Classical_19.mp3","Both"
4871,"computer","32","3258.09999999404","4","Pre","image10.jpg","Classical_2.mp3","Both"
4871,"computer","33","2516.40000000596","7","Pre","image4.jpg","Cut_jazz_16.mp3","Music"
4871,"computer","34","1495.59999999404","4","Pre","image5.jpg","Cut_jazz_5.mp3","Image"
4871,"computer","35","1880.5","2","Pre","image4.jpg","Cut_jazz_19.mp3","Image"
4871,"computer","36","2415.80000001192","6","Pre","image1.jpg","Classical_1.mp3","Music"
4871,"computer","37","2278.90000000596","4","Pre","image34.jpg","Classical_19.mp3","Image"
4871,"computer","38","3002.5","4","Pre","image52.jpg","Cut_jazz_10.mp3","Image"
4871,"computer","39","1273","3","Pre","image3.jpg","Classical_7.mp3","Music"
4871,"computer","40","1387.59999999404","2","Pre","image14.jpg","Classical_15.mp3","Music"
4871,"computer","41","2742.60000002384","5","Pre","image17.jpg","Classical_17.mp3","Music"
4871,"computer","42","875.899999976158","5","Pre","image35.jpg","Cut_jazz_1.mp3","Music"
4871,"computer","43","1736.39999997616","5","Pre","image10.jpg","Classical_4.mp3","Music"
4871,"computer","44","1045.09999999404","1","Pre","image34.jpg","Cut_jazz_1.mp3","Both"
4871,"computer","45","1857.5","1","Pre","image15.jpg","Classical_15.mp3","Image"
4871,"computer","46","2787.40000000596","1","Pre","image39.jpg","Cut_jazz_19.mp3","Music"
4871,"computer","47","1935.80000001192","4","Pre","image14.jpg","Classical_18.mp3","Both"
4871,"computer","48","1605.79999998212","5","Pre","image34.jpg","Cut_jazz_2.mp3","Music"
4871,"computer","49","4772.09999999404","4","Pre","image2.jpg","Classical_8.mp3","Both"
4871,"computer","50","9462.30000001192","4","Pre","image4.jpg","Cut_jazz_14.mp3","Both"
4871,"computer","51","1556.30000001192","4","Pre","image47.jpg","Cut_jazz_10.mp3","Both"
4871,"computer","52","2083","2","Pre","image1.jpg","Classical_4.mp3","Both"
4871,"computer","53","2091.59999999404","2","Pre","image12.jpg","Classical_2.mp3","Music"
4871,"computer","54","1034.80000001192","2","Pre","image20.jpg","Classical_8.mp3","Music"
4871,"computer","55","399.59999999404","4","Pre","image10.jpg","Classical_1.mp3","Image"
4871,"computer","56","1018.69999998808","9","Pre","image52.jpg","Cut_jazz_7.mp3","Music"
4871,"computer","57","1298.80000001192","1","Pre","image36.jpg","Cut_jazz_16.mp3","Image"
4871,"computer","4","3367.69999998808","5","Post","image39.jpg","Cut_jazz_5.mp3","Image"
4871,"computer","5","2339.5","5","Post","image15.jpg","Cut_jazz_19.mp3","Music"
4871,"computer","6","959.5","4","Post","image20.jpg","Classical_1.mp3","Image"
4871,"computer","7","2814","7","Post","image33.jpg","Classical_19.mp3","Music"
4871,"computer","8","1928.5","6","Post","image15.jpg","Cut_jazz_16.mp3","Both"
4871,"computer","9","988","8","Post","image33.jpg","Cut_jazz_2.mp3","Both"
4871,"computer","10","1696.69999998808","8","Post","image20.jpg","Classical_2.mp3","Both"
4871,"computer","11","1577.90000000596","7","Post","image5.jpg","Classical_8.mp3","Music"
4871,"computer","12","1672.5","5","Post","image3.jpg","Classical_4.mp3","Image"
4871,"computer","13","953.90000000596","6","Post","image2.jpg","Classical_2.mp3","Image"
4871,"computer","14","725","6","Post","image1.jpg","Classical_17.mp3","Image"
4871,"computer","15","3380.40000000596","5","Post","image39.jpg","Cut_jazz_10.mp3","Music"
4871,"computer","16","1091.69999998808","5","Post","image35.jpg","Classical_19.mp3","Both"
4871,"computer","17","1569.79999998212","2","Post","image20.jpg","Classical_4.mp3","Music"
4871,"computer","18","1540.5","2","Post","image3.jpg","Classical_2.mp3","Music"
4871,"computer","19","1102","9","Post","image4.jpg","Cut_jazz_7.mp3","Music"
4871,"computer","20","2265.70000001788","4","Post","image52.jpg","Classical_8.mp3","Image"
4871,"computer","21","909.800000011921","1","Post","image34.jpg","Classical_19.mp3","Image"
4871,"computer","22","3041.29999998212","8","Post","image14.jpg","Cut_jazz_14.mp3","Music"
4871,"computer","23","917.59999999404","2","Post","image33.jpg","Cut_jazz_1.mp3","Image"
4871,"computer","24","1581.89999997616","6","Post","image52.jpg","Classical_7.mp3","Music"
4871,"computer","25","3251.79999998212","7","Post","image2.jpg","Classical_1.mp3","Music"
4871,"computer","26","324.5","8","Post","image12.jpg","Classical_17.mp3","Music"
4871,"computer","27","1190.5","7","Post","image10.jpg","Classical_18.mp3","Music"
4871,"computer","28","1144.79999998212","1","Post","image47.jpg","Classical_6.mp3","Music"
4871,"computer","29","3028","7","Post","image14.jpg","Cut_jazz_19.mp3","Both"
4871,"computer","30","3326.80000001192","6","Post","image34.jpg","Cut_jazz_2.mp3","Music"
4871,"computer","31","1232.40000000596","4","Post","image17.jpg","Cut_jazz_19.mp3","Image"
4871,"computer","32","1232.90000000596","7","Post","image4.jpg","Cut_jazz_10.mp3","Image"
4871,"computer","33","1763.69999998808","7","Post","image47.jpg","Classical_7.mp3","Image"
4871,"computer","34","1100.19999998808","6","Post","image36.jpg","Cut_jazz_7.mp3","Image"
4871,"computer","35","411.90000000596","6","Post","image2.jpg","Classical_4.mp3","Both"
4871,"computer","36","1905.80000001192","4","Post","image14.jpg","Cut_jazz_16.mp3","Image"
4871,"computer","37","1978.30000001192","6","Post","image15.jpg","Cut_jazz_14.mp3","Image"
4871,"computer","38","10816.2999999821","6","Post","image12.jpg","Classical_15.mp3","Both"
4871,"computer","39","1521.5","7","Post","image1.jpg","Classical_18.mp3","Both"
4871,"computer","40","1789.80000001192","5","Post","image36.jpg","Cut_jazz_5.mp3","Music"
4871,"computer","41","689.90000000596","5","Post","image52.jpg","Classical_6.mp3","Both"
4871,"computer","42","672.40000000596","1","Post","image10.jpg","Classical_15.mp3","Image"
4871,"computer","43","699.09999999404","3","Post","image34.jpg","Cut_jazz_1.mp3","Both"
4871,"computer","44","760.59999999404","5","Post","image35.jpg","Cut_jazz_2.mp3","Image"
4871,"computer","45","631.59999999404","9","Post","image39.jpg","Cut_jazz_7.mp3","Both"
4871,"computer","46","389.5","7","Post","image35.jpg","Cut_jazz_1.mp3","Music"
4871,"computer","47","700.40000000596","5","Post","image5.jpg","Classical_7.mp3","Both"
4871,"computer","48","1662.79999998212","8","Post","image3.jpg","Classical_1.mp3","Both"
4871,"computer","49","1260.79999998212","7","Post","image17.jpg","Cut_jazz_14.mp3","Both"
4871,"computer","50","810.200000017881","7","Post","image5.jpg","Classical_6.mp3","Image"
4871,"computer","51","7271.79999998212","7","Post","image1.jpg","Classical_15.mp3","Music"
4871,"computer","52","1573.59999999404","8","Post","image10.jpg","Classical_17.mp3","Both"
4871,"computer","53","930.300000011921","7","Post","image12.jpg","Classical_18.mp3","Image"
4871,"computer","54","7432.20000001788","7","Post","image4.jpg","Cut_jazz_5.mp3","Both"
4871,"computer","55","3367.59999999404","4","Post","image36.jpg","Cut_jazz_10.mp3","Both"
4871,"computer","56","2214","4","Post","image47.jpg","Classical_8.mp3","Both"
4871,"computer","57","5303.79999998212","6","Post","image17.jpg","Cut_jazz_16.mp3","Music"
4758,"computer","4","2519.60000000149","1","Pre","image1.jpg","Classical_2.mp3","Image"
4758,"computer","5","2567","1","Pre","image47.jpg","Cut_jazz_7.mp3","Image"
4758,"computer","6","1257.39999999851","3","Pre","image3.jpg","Classical_6.mp3","Both"
4758,"computer","7","1653.30000000075","1","Pre","image33.jpg","Cut_jazz_1.mp3","Image"
4758,"computer","8","2527.10000000149","4","Pre","image39.jpg","Cut_jazz_16.mp3","Both"
4758,"computer","9","2085.80000000075","1","Pre","image15.jpg","Classical_17.mp3","Both"
4758,"computer","10","3742.30000000075","2","Pre","image12.jpg","Classical_4.mp3","Image"
4758,"computer","11","7644.70000000298","2","Pre","image17.jpg","Classical_15.mp3","Both"
4758,"computer","12","3097.69999999925","3","Pre","image47.jpg","Cut_jazz_5.mp3","Music"
4758,"computer","13","1803.59999999776","5","Pre","image36.jpg","Cut_jazz_14.mp3","Music"
4758,"computer","14","2790.90000000224","2","Pre","image15.jpg","Classical_18.mp3","Music"
4758,"computer","15","3101.39999999851","3","Pre","image14.jpg","Classical_17.mp3","Image"
4758,"computer","16","1396.80000000075","1","Pre","image35.jpg","Cut_jazz_2.mp3","Image"
4758,"computer","17","2678.89999999851","4","Pre","image2.jpg","Classical_7.mp3","Image"
4758,"computer","18","907.599999997765","5","Pre","image20.jpg","Classical_6.mp3","Image"
4758,"computer","19","2351.89999999851","3","Pre","image5.jpg","Cut_jazz_7.mp3","Both"
4758,"computer","20","1247.10000000149","3","Pre","image20.jpg","Classical_7.mp3","Both"
4758,"computer","21","965.599999997765","1","Pre","image33.jpg","Cut_jazz_2.mp3","Both"
4758,"computer","22","945","3","Pre","image12.jpg","Classical_1.mp3","Both"
4758,"computer","23","897","2","Pre","image33.jpg","Classical_19.mp3","Music"
4758,"computer","24","3707.39999999851","3","Pre","image39.jpg","Cut_jazz_14.mp3","Image"
4758,"computer","25","4566.30000000075","2","Pre","image5.jpg","Cut_jazz_10.mp3","Music"
4758,"computer","26","1280.89999999851","2","Pre","image2.jpg","Classical_6.mp3","Music"
4758,"computer","27","773.800000000745","3","Pre","image3.jpg","Classical_8.mp3","Image"
4758,"computer","28","1880.89999999851","1","Pre","image36.jpg","Cut_jazz_19.mp3","Both"
4758,"computer","29","4819.30000000075","1","Pre","image17.jpg","Classical_18.mp3","Image"
4758,"computer","30","1048.39999999851","2","Pre","image52.jpg","Cut_jazz_5.mp3","Both"
4758,"computer","31","708","2","Pre","image35.jpg","Classical_19.mp3","Both"
4758,"computer","32","755.10000000149","1","Pre","image10.jpg","Classical_2.mp3","Both"
4758,"computer","33","3283.19999999925","1","Pre","image4.jpg","Cut_jazz_16.mp3","Music"
4758,"computer","34","1093.69999999925","3","Pre","image5.jpg","Cut_jazz_5.mp3","Image"
4758,"computer","35","656","1","Pre","image4.jpg","Cut_jazz_19.mp3","Image"
4758,"computer","36","2866.60000000149","4","Pre","image1.jpg","Classical_1.mp3","Music"
4758,"computer","37","5347.69999999925","1","Pre","image34.jpg","Classical_19.mp3","Image"
4758,"computer","38","740","1","Pre","image52.jpg","Cut_jazz_10.mp3","Image"
4758,"computer","39","4909.39999999851","2","Pre","image3.jpg","Classical_7.mp3","Music"
4758,"computer","40","1414.40000000224","2","Pre","image14.jpg","Classical_15.mp3","Music"
4758,"computer","41","1087.19999999925","3","Pre","image17.jpg","Classical_17.mp3","Music"
4758,"computer","42","798.5","2","Pre","image35.jpg","Cut_jazz_1.mp3","Music"
4758,"computer","43","3176.29999999702","2","Pre","image10.jpg","Classical_4.mp3","Music"
4758,"computer","44","1028.59999999776","2","Pre","image34.jpg","Cut_jazz_1.mp3","Both"
4758,"computer","45","940.400000002235","1","Pre","image15.jpg","Classical_15.mp3","Image"
4758,"computer","46","4209.19999999925","2","Pre","image39.jpg","Cut_jazz_19.mp3","Music"
4758,"computer","47","2913.39999999851","3","Pre","image14.jpg","Classical_18.mp3","Both"
4758,"computer","48","2498.60000000149","2","Pre","image34.jpg","Cut_jazz_2.mp3","Music"
4758,"computer","49","908.099999997765","3","Pre","image2.jpg","Classical_8.mp3","Both"
4758,"computer","50","753.800000000745","1","Pre","image4.jpg","Cut_jazz_14.mp3","Both"
4758,"computer","51","782.800000000745","1","Pre","image47.jpg","Cut_jazz_10.mp3","Both"
4758,"computer","52","772.89999999851","1","Pre","image1.jpg","Classical_4.mp3","Both"
4758,"computer","53","796.400000002235","2","Pre","image12.jpg","Classical_2.mp3","Music"
4758,"computer","54","859.199999999255","2","Pre","image20.jpg","Classical_8.mp3","Music"
4758,"computer","55","537.300000000745","1","Pre","image10.jpg","Classical_1.mp3","Image"
4758,"computer","56","746.39999999851","2","Pre","image52.jpg","Cut_jazz_7.mp3","Music"
4758,"computer","57","1732.30000000075","1","Pre","image36.jpg","Cut_jazz_16.mp3","Image"
4758,"computer","4","3169","2","Post","image39.jpg","Cut_jazz_5.mp3","Image"
4758,"computer","5","1706.10000000149","2","Post","image15.jpg","Cut_jazz_19.mp3","Music"
4758,"computer","6","4564.29999999702","3","Post","image20.jpg","Classical_1.mp3","Image"
4758,"computer","7","534.199999999255","3","Post","image33.jpg","Classical_19.mp3","Music"
4758,"computer","8","2017.09999999776","2","Post","image15.jpg","Cut_jazz_16.mp3","Both"
4758,"computer","9","3742.39999999851","2","Post","image33.jpg","Cut_jazz_2.mp3","Both"
4758,"computer","10","1692.19999999925","3","Post","image20.jpg","Classical_2.mp3","Both"
4758,"computer","11","880.60000000149","3","Post","image5.jpg","Classical_8.mp3","Music"
4758,"computer","12","1351.09999999776","3","Post","image3.jpg","Classical_4.mp3","Image"
4758,"computer","13","768.300000000745","3","Post","image2.jpg","Classical_2.mp3","Image"
4758,"computer","14","599.800000000745","1","Post","image1.jpg","Classical_17.mp3","Image"
4758,"computer","15","1055.30000000075","2","Post","image39.jpg","Cut_jazz_10.mp3","Music"
4758,"computer","16","1102.39999999851","1","Post","image35.jpg","Classical_19.mp3","Both"
4758,"computer","17","3739.89999999851","3","Post","image20.jpg","Classical_4.mp3","Music"
4758,"computer","18","2005.5","2","Post","image3.jpg","Classical_2.mp3","Music"
4758,"computer","19","4136.29999999702","2","Post","image4.jpg","Cut_jazz_7.mp3","Music"
4758,"computer","20","756","1","Post","image52.jpg","Classical_8.mp3","Image"
4758,"computer","21","668.400000002235","1","Post","image34.jpg","Classical_19.mp3","Image"
4758,"computer","22","885.5","2","Post","image14.jpg","Cut_jazz_14.mp3","Music"
4758,"computer","23","842.89999999851","1","Post","image33.jpg","Cut_jazz_1.mp3","Image"
4758,"computer","24","1090.89999999851","2","Post","image52.jpg","Classical_7.mp3","Music"
4758,"computer","25","760.800000000745","3","Post","image2.jpg","Classical_1.mp3","Music"
4758,"computer","26","903","3","Post","image12.jpg","Classical_17.mp3","Music"
4758,"computer","27","2747.19999999925","2","Post","image10.jpg","Classical_18.mp3","Music"
4758,"computer","28","2540.29999999702","1","Post","image47.jpg","Classical_6.mp3","Music"
4758,"computer","29","2326","2","Post","image14.jpg","Cut_jazz_19.mp3","Both"
4758,"computer","30","725.699999999255","2","Post","image34.jpg","Cut_jazz_2.mp3","Music"
4758,"computer","31","1532.19999999925","2","Post","image17.jpg","Cut_jazz_19.mp3","Image"
4758,"computer","32","528.699999999255","1","Post","image4.jpg","Cut_jazz_10.mp3","Image"
4758,"computer","33","570","1","Post","image47.jpg","Classical_7.mp3","Image"
4758,"computer","34","577.89999999851","1","Post","image36.jpg","Cut_jazz_7.mp3","Image"
4758,"computer","35","3216.09999999776","2","Post","image2.jpg","Classical_4.mp3","Both"
4758,"computer","36","7009.5","2","Post","image14.jpg","Cut_jazz_16.mp3","Image"
4758,"computer","37","578.199999999255","1","Post","image15.jpg","Cut_jazz_14.mp3","Image"
4758,"computer","38","735.79999999702","2","Post","image12.jpg","Classical_15.mp3","Both"
4758,"computer","39","1254.30000000075","1","Post","image1.jpg","Classical_18.mp3","Both"
4758,"computer","40","1958.80000000075","2","Post","image36.jpg","Cut_jazz_5.mp3","Music"
4758,"computer","41","1298.80000000075","1","Post","image52.jpg","Classical_6.mp3","Both"
4758,"computer","42","656.70000000298","1","Post","image10.jpg","Classical_15.mp3","Image"
4758,"computer","43","862.699999999255","1","Post","image34.jpg","Cut_jazz_1.mp3","Both"
4758,"computer","44","556.89999999851","1","Post","image35.jpg","Cut_jazz_2.mp3","Image"
4758,"computer","45","1217.30000000075","2","Post","image39.jpg","Cut_jazz_7.mp3","Both"
4758,"computer","46","1166","2","Post","image35.jpg","Cut_jazz_1.mp3","Music"
4758,"computer","47","2046.5","3","Post","image5.jpg","Classical_7.mp3","Both"
4758,"computer","48","896.5","3","Post","image3.jpg","Classical_1.mp3","Both"
4758,"computer","49","1024.79999999702","3","Post","image17.jpg","Cut_jazz_14.mp3","Both"
4758,"computer","50","2508.80000000075","3","Post","image5.jpg","Classical_6.mp3","Image"
4758,"computer","51","3187.90000000224","2","Post","image1.jpg","Classical_15.mp3","Music"
4758,"computer","52","756.699999999255","1","Post","image10.jpg","Classical_17.mp3","Both"
4758,"computer","53","1533.89999999851","2","Post","image12.jpg","Classical_18.mp3","Image"
4758,"computer","54","682.699999999255","1","Post","image4.jpg","Cut_jazz_5.mp3","Both"
4758,"computer","55","906.10000000149","1","Post","image36.jpg","Cut_jazz_10.mp3","Both"
4758,"computer","56","860","1","Post","image47.jpg","Classical_8.mp3","Both"
4758,"computer","57","1338","2","Post","image17.jpg","Cut_jazz_16.mp3","Music"
4822,"computer","4","884","9","Post","image47.jpg","Cut_jazz_10.mp3","Both"
4822,"computer","5","1941","8","Post","image12.jpg","Cut_jazz_16.mp3","Music"
4822,"computer","6","1313.00000000001","8","Post","image36.jpg","Classical_4.mp3","Both"
4822,"computer","7","1069.00000000001","8","Post","image17.jpg","Cut_jazz_2.mp3","Image"
4822,"computer","8","1014","3","Post","image39.jpg","Classical_1.mp3","Image"
4822,"computer","9","3911.00000000001","6","Post","image10.jpg","Cut_jazz_19.mp3","Music"
4822,"computer","10","1618","2","Post","image15.jpg","Classical_19.mp3","Image"
4822,"computer","11","2655","5","Post","image10.jpg","Cut_jazz_16.mp3","Both"
4822,"computer","12","858","8","Post","image3.jpg","Classical_7.mp3","Music"
4822,"computer","13","1846.00000000003","1","Post","image4.jpg","Classical_4.mp3","Image"
4822,"computer","14","1254.99999999997","6","Post","image12.jpg","Cut_jazz_14.mp3","Both"
4822,"computer","15","831.000000000029","8","Post","image14.jpg","Cut_jazz_2.mp3","Both"
4822,"computer","16","1872.00000000003","3","Post","image39.jpg","Classical_2.mp3","Both"
4822,"computer","17","2081.00000000003","8","Post","image1.jpg","Cut_jazz_19.mp3","Both"
4822,"computer","18","1024","7","Post","image33.jpg","Classical_18.mp3","Both"
4822,"computer","19","1559","6","Post","image20.jpg","Classical_8.mp3","Music"
4822,"computer","20","1336","5","Post","image2.jpg","Classical_6.mp3","Music"
4822,"computer","21","1026","5","Post","image33.jpg","Classical_17.mp3","Image"
4822,"computer","22","1409.00000000003","7","Post","image12.jpg","Cut_jazz_19.mp3","Image"
4822,"computer","23","928","3","Post","image10.jpg","Cut_jazz_14.mp3","Image"
4822,"computer","24","1748","8","Post","image36.jpg","Classical_1.mp3","Music"
4822,"computer","25","1181","9","Post","image14.jpg","Classical_19.mp3","Music"
4822,"computer","26","565","8","Post","image47.jpg","Cut_jazz_7.mp3","Image"
4822,"computer","27","753","7","Post","image35.jpg","Classical_15.mp3","Both"
4822,"computer","28","2200","7","Post","image3.jpg","Classical_8.mp3","Image"
4822,"computer","29","2283","8","Post","image15.jpg","Cut_jazz_1.mp3","Both"
4822,"computer","30","757","5","Post","image52.jpg","Cut_jazz_5.mp3","Both"
4822,"computer","31","1825","8","Post","image15.jpg","Cut_jazz_2.mp3","Music"
4822,"computer","32","1137","7","Post","image5.jpg","Cut_jazz_5.mp3","Image"
4822,"computer","33","703","9","Post","image20.jpg","Classical_6.mp3","Image"
4822,"computer","34","717.999999999942","8","Post","image39.jpg","Classical_4.mp3","Music"
4822,"computer","35","1426","7","Post","image1.jpg","Cut_jazz_14.mp3","Music"
4822,"computer","36","713","8","Post","image2.jpg","Classical_8.mp3","Both"
4822,"computer","37","628.999999999942","9","Post","image5.jpg","Cut_jazz_7.mp3","Both"
4822,"computer","38","1382.99999999994","5","Post","image3.jpg","Classical_6.mp3","Both"
4822,"computer","39","1560","1","Post","image52.jpg","Cut_jazz_10.mp3","Image"
4822,"computer","40","1658","4","Post","image35.jpg","Classical_17.mp3","Music"
4822,"computer","41","1129","5","Post","image4.jpg","Classical_2.mp3","Music"
4822,"computer","42","937","8","Post","image17.jpg","Classical_19.mp3","Both"
4822,"computer","43","1838","2","Post","image34.jpg","Classical_15.mp3","Image"
4822,"computer","44","1273","6","Post","image1.jpg","Cut_jazz_16.mp3","Image"
4822,"computer","45","875","7","Post","image20.jpg","Classical_7.mp3","Both"
4822,"computer","46","1947","7","Post","image47.jpg","Cut_jazz_5.mp3","Music"
4822,"computer","47","1235","3","Post","image35.jpg","Classical_18.mp3","Image"
4822,"computer","48","4081.00000000006","7","Post","image36.jpg","Classical_2.mp3","Image"
4822,"computer","49","1984","8","Post","image17.jpg","Cut_jazz_1.mp3","Music"
4822,"computer","50","2171","5","Post","image5.jpg","Cut_jazz_10.mp3","Music"
4822,"computer","51","526.999999999942","9","Post","image2.jpg","Classical_7.mp3","Image"
4822,"computer","52","1591","5","Post","image4.jpg","Classical_1.mp3","Both"
4822,"computer","53","1977.00000000012","6","Post","image52.jpg","Cut_jazz_7.mp3","Music"
4822,"computer","54","897.000000000058","8","Post","image14.jpg","Cut_jazz_1.mp3","Image"
4822,"computer","55","1183","5","Post","image33.jpg","Classical_15.mp3","Music"
4822,"computer","56","1435","6","Post","image34.jpg","Classical_17.mp3","Both"
4822,"computer","57","858","7","Post","image34.jpg","Classical_18.mp3","Music"
4822,"computer","4","2620","8","Pre","image47.jpg","Classical_1.mp3","Music"
4822,"computer","5","2276.00000000012","5","Pre","image10.jpg","Cut_jazz_7.mp3","Both"
4822,"computer","6","1521","3","Pre","image1.jpg","Cut_jazz_10.mp3","Both"
4822,"computer","7","1244","2","Pre","image39.jpg","Cut_jazz_14.mp3","Image"
4822,"computer","8","2325.00000000012","9","Pre","image2.jpg","Cut_jazz_1.mp3","Image"
4822,"computer","9","1881","8","Pre","image14.jpg","Classical_17.mp3","Image"
4822,"computer","10","1132","7","Pre","image35.jpg","Classical_7.mp3","Music"
4822,"computer","11","1656","6","Pre","image3.jpg","Cut_jazz_1.mp3","Music"
4822,"computer","12","1366","5","Pre","image5.jpg","Classical_2.mp3","Both"
4822,"computer","13","1079","9","Pre","image20.jpg","Classical_19.mp3","Image"
4822,"computer","14","1291","8","Pre","image1.jpg","Cut_jazz_5.mp3","Music"
4822,"computer","15","2180","3","Pre","image52.jpg","Classical_2.mp3","Music"
4822,"computer","16","1399","6","Pre","image36.jpg","Cut_jazz_14.mp3","Music"
4822,"computer","17","1265","7","Pre","image3.jpg","Cut_jazz_2.mp3","Image"
4822,"computer","18","3420","3","Pre","image12.jpg","Cut_jazz_7.mp3","Music"
4822,"computer","19","1877","1","Pre","image10.jpg","Cut_jazz_5.mp3","Image"
4822,"computer","20","836","8","Pre","image5.jpg","Classical_4.mp3","Music"
4822,"computer","21","1491","2","Pre","image10.jpg","Cut_jazz_10.mp3","Music"
4822,"computer","22","989","1","Pre","image33.jpg","Classical_7.mp3","Image"
4822,"computer","23","1544","2","Pre","image52.jpg","Classical_1.mp3","Both"
4822,"computer","24","703.000000000116","4","Pre","image12.jpg","Cut_jazz_5.mp3","Both"
4822,"computer","25","2599","6","Pre","image14.jpg","Classical_18.mp3","Both"
4822,"computer","26","2235","7","Pre","image36.jpg","Cut_jazz_19.mp3","Both"
4822,"computer","27","649.000000000116","7","Pre","image3.jpg","Classical_19.mp3","Both"
4822,"computer","28","762","6","Pre","image35.jpg","Classical_6.mp3","Both"
4822,"computer","29","1519","5","Pre","image4.jpg","Cut_jazz_19.mp3","Image"
4822,"computer","30","1353","4","Pre","image15.jpg","Classical_17.mp3","Both"
4822,"computer","31","1628.00000000012","6","Pre","image20.jpg","Cut_jazz_1.mp3","Both"
4822,"computer","32","1625","3","Pre","image39.jpg","Cut_jazz_16.mp3","Both"
4822,"computer","33","2591","7","Pre","image17.jpg","Classical_18.mp3","Image"
4822,"computer","34","1486","3","Pre","image33.jpg","Classical_6.mp3","Music"
4822,"computer","35","2140","7","Pre","image14.jpg","Classical_15.mp3","Music"
4822,"computer","36","2868","5","Pre","image35.jpg","Classical_8.mp3","Image"
4822,"computer","37","3733","5","Pre","image4.jpg","Cut_jazz_14.mp3","Both"
4822,"computer","38","4072","5","Pre","image52.jpg","Classical_4.mp3","Image"
4822,"computer","39","828.999999999884","7","Pre","image20.jpg","Cut_jazz_2.mp3","Music"
4822,"computer","40","850","5","Pre","image33.jpg","Classical_8.mp3","Both"
4822,"computer","41","2385.99999999988","7","Pre","image2.jpg","Classical_19.mp3","Music"
4822,"computer","42","938","2","Pre","image34.jpg","Classical_7.mp3","Both"
4822,"computer","43","1165","2","Pre","image5.jpg","Classical_1.mp3","Image"
4822,"computer","44","1472","8","Pre","image47.jpg","Classical_2.mp3","Image"
4822,"computer","45","1679","5","Pre","image15.jpg","Classical_15.mp3","Image"
4822,"computer","46","1192.99999999988","1","Pre","image34.jpg","Classical_6.mp3","Image"
4822,"computer","47","824.000000000116","5","Pre","image12.jpg","Cut_jazz_10.mp3","Image"
4822,"computer","48","1093","8","Pre","image2.jpg","Cut_jazz_2.mp3","Both"
4822,"computer","49","842.999999999884","8","Pre","image4.jpg","Cut_jazz_16.mp3","Music"
4822,"computer","50","811","9","Pre","image17.jpg","Classical_15.mp3","Both"
4822,"computer","51","1090.99999999988","8","Pre","image1.jpg","Cut_jazz_7.mp3","Image"
4822,"computer","52","1680","5","Pre","image15.jpg","Classical_18.mp3","Music"
4822,"computer","53","1468.00000000012","2","Pre","image17.jpg","Classical_17.mp3","Music"
4822,"computer","54","1226","8","Pre","image47.jpg","Classical_4.mp3","Both"
4822,"computer","55","2286.00000000023","7","Pre","image34.jpg","Classical_8.mp3","Music"
4822,"computer","56","3005.99999999977","6","Pre","image36.jpg","Cut_jazz_16.mp3","Image"
4822,"computer","57","883","8","Pre","image39.jpg","Cut_jazz_19.mp3","Music"
4739,"computer","4","1110.0999994278","1","Post","image47.jpg","Cut_jazz_10.mp3","Both"
4739,"computer","5","1348.79999923706","7","Post","image12.jpg","Cut_jazz_16.mp3","Music"
4739,"computer","6","2055.60000038147","3","Post","image36.jpg","Classical_4.mp3","Both"
4739,"computer","7","3272.5999994278","4","Post","image17.jpg","Cut_jazz_2.mp3","Image"
4739,"computer","8","2710.30000019073","9","Post","image39.jpg","Classical_1.mp3","Image"
4739,"computer","9","2210.5","3","Post","image10.jpg","Cut_jazz_19.mp3","Music"
4739,"computer","10","2481.5999994278","1","Post","image15.jpg","Classical_19.mp3","Image"
4739,"computer","11","797.5","1","Post","image10.jpg","Cut_jazz_16.mp3","Both"
4739,"computer","12","7109.79999923706","1","Post","image3.jpg","Classical_7.mp3","Music"
4739,"computer","13","23822.1000003815","1","Post","image4.jpg","Classical_4.mp3","Image"
4739,"computer","14","1592.80000019073","2","Post","image12.jpg","Cut_jazz_14.mp3","Both"
4739,"computer","15","1451.69999980927","3","Post","image14.jpg","Cut_jazz_2.mp3","Both"
4739,"computer","16","3312.5","1","Post","image39.jpg","Classical_2.mp3","Both"
4739,"computer","17","1944.89999961853","2","Post","image1.jpg","Cut_jazz_19.mp3","Both"
4739,"computer","18","1094.80000019073","1","Post","image33.jpg","Classical_18.mp3","Both"
4739,"computer","19","2559.9000005722","2","Post","image20.jpg","Classical_8.mp3","Music"
4739,"computer","20","2198.69999980927","1","Post","image2.jpg","Classical_6.mp3","Music"
4739,"computer","21","2036.89999961853","1","Post","image33.jpg","Classical_17.mp3","Image"
4739,"computer","22","1294.89999961853","3","Post","image12.jpg","Cut_jazz_19.mp3","Image"
4739,"computer","23","910.10000038147","1","Post","image10.jpg","Cut_jazz_14.mp3","Image"
4739,"computer","24","1799.19999980927","1","Post","image36.jpg","Classical_1.mp3","Music"
4739,"computer","25","1002.69999980927","7","Post","image14.jpg","Classical_19.mp3","Music"
4739,"computer","26","801.699999809265","1","Post","image47.jpg","Cut_jazz_7.mp3","Image"
4739,"computer","27","839.699999809265","1","Post","image35.jpg","Classical_15.mp3","Both"
4739,"computer","28","1021.60000038147","1","Post","image3.jpg","Classical_8.mp3","Image"
4739,"computer","29","1090.9000005722","1","Post","image15.jpg","Cut_jazz_1.mp3","Both"
4739,"computer","30","995","7","Post","image52.jpg","Cut_jazz_5.mp3","Both"
4739,"computer","31","849","1","Post","image15.jpg","Cut_jazz_2.mp3","Music"
4739,"computer","32","1099.70000076294","7","Post","image5.jpg","Cut_jazz_5.mp3","Image"
4739,"computer","33","2883.80000019073","2","Post","image20.jpg","Classical_6.mp3","Image"
4739,"computer","34","1427.89999961853","2","Post","image39.jpg","Classical_4.mp3","Music"
4739,"computer","35","2599.5","3","Post","image1.jpg","Cut_jazz_14.mp3","Music"
4739,"computer","36","1701.9000005722","2","Post","image2.jpg","Classical_8.mp3","Both"
4739,"computer","37","1190.30000019073","4","Post","image5.jpg","Cut_jazz_7.mp3","Both"
4739,"computer","38","852.900000572205","2","Post","image3.jpg","Classical_6.mp3","Both"
4739,"computer","39","1165.4000005722","8","Post","image52.jpg","Cut_jazz_10.mp3","Image"
4739,"computer","40","2060.0999994278","2","Post","image35.jpg","Classical_17.mp3","Music"
4739,"computer","41","4653.39999961853","3","Post","image4.jpg","Classical_2.mp3","Music"
4739,"computer","42","1856.5","5","Post","image17.jpg","Classical_19.mp3","Both"
4739,"computer","43","1037.60000038147","2","Post","image34.jpg","Classical_15.mp3","Image"
4739,"computer","44","3476.80000019073","3","Post","image1.jpg","Cut_jazz_16.mp3","Image"
4739,"computer","45","2029.39999961853","2","Post","image20.jpg","Classical_7.mp3","Both"
4739,"computer","46","1144.30000019073","4","Post","image47.jpg","Cut_jazz_5.mp3","Music"
4739,"computer","47","830.599999427795","1","Post","image35.jpg","Classical_18.mp3","Image"
4739,"computer","48","2833.30000019073","1","Post","image36.jpg","Classical_2.mp3","Image"
4739,"computer","49","1024.69999980927","1","Post","image17.jpg","Cut_jazz_1.mp3","Music"
4739,"computer","50","1828.30000019073","6","Post","image5.jpg","Cut_jazz_10.mp3","Music"
4739,"computer","51","1118.9000005722","2","Post","image2.jpg","Classical_7.mp3","Image"
4739,"computer","52","1560.30000019073","1","Post","image4.jpg","Classical_1.mp3","Both"
4739,"computer","53","987.199999809265","9","Post","image52.jpg","Cut_jazz_7.mp3","Music"
4739,"computer","54","1332.9000005722","2","Post","image14.jpg","Cut_jazz_1.mp3","Image"
4739,"computer","55","1639.20000076294","3","Post","image33.jpg","Classical_15.mp3","Music"
4739,"computer","56","874.89999961853","1","Post","image34.jpg","Classical_17.mp3","Both"
4739,"computer","57","1021.39999961853","1","Post","image34.jpg","Classical_18.mp3","Music"
4739,"computer","4","1843.89999961853","7","Pre","image47.jpg","Classical_1.mp3","Music"
4739,"computer","5","1419.60000038147","1","Pre","image10.jpg","Cut_jazz_7.mp3","Both"
4739,"computer","6","785.699999809265","1","Pre","image1.jpg","Cut_jazz_10.mp3","Both"
4739,"computer","7","1975.69999980927","8","Pre","image39.jpg","Cut_jazz_14.mp3","Image"
4739,"computer","8","1349.69999980927","3","Pre","image2.jpg","Cut_jazz_1.mp3","Image"
4739,"computer","9","544.800000190735","6","Pre","image14.jpg","Classical_17.mp3","Image"
4739,"computer","10","1231","1","Pre","image35.jpg","Classical_7.mp3","Music"
4739,"computer","11","1121.60000038147","1","Pre","image3.jpg","Cut_jazz_1.mp3","Music"
4739,"computer","12","4749.69999980927","5","Pre","image5.jpg","Classical_2.mp3","Both"
4739,"computer","13","3094.5","3","Pre","image20.jpg","Classical_19.mp3","Image"
4739,"computer","14","1440.5999994278","1","Pre","image1.jpg","Cut_jazz_5.mp3","Music"
4739,"computer","15","3520.69999980927","2","Pre","image52.jpg","Classical_2.mp3","Music"
4739,"computer","16","1299.89999961853","6","Pre","image36.jpg","Cut_jazz_14.mp3","Music"
4739,"computer","17","1716.0999994278","2","Pre","image3.jpg","Cut_jazz_2.mp3","Image"
4739,"computer","18","946.699999809265","8","Pre","image12.jpg","Cut_jazz_7.mp3","Music"
4739,"computer","19","1159.10000038147","1","Pre","image10.jpg","Cut_jazz_5.mp3","Image"
4739,"computer","20","1806.19999980927","1","Pre","image5.jpg","Classical_4.mp3","Music"
4739,"computer","21","1734.70000076294","2","Pre","image10.jpg","Cut_jazz_10.mp3","Music"
4739,"computer","22","4088.89999961853","3","Pre","image33.jpg","Classical_7.mp3","Image"
4739,"computer","23","2894.19999980927","4","Pre","image52.jpg","Classical_1.mp3","Both"
4739,"computer","24","5461.69999980927","2","Pre","image12.jpg","Cut_jazz_5.mp3","Both"
4739,"computer","25","1669.39999961853","5","Pre","image14.jpg","Classical_18.mp3","Both"
4739,"computer","26","915.199999809265","2","Pre","image36.jpg","Cut_jazz_19.mp3","Both"
4739,"computer","27","863.5","2","Pre","image3.jpg","Classical_19.mp3","Both"
4739,"computer","28","1331.80000019073","1","Pre","image35.jpg","Classical_6.mp3","Both"
4739,"computer","29","1046","1","Pre","image4.jpg","Cut_jazz_19.mp3","Image"
4739,"computer","30","1360","1","Pre","image15.jpg","Classical_17.mp3","Both"
4739,"computer","31","2723.30000019073","1","Pre","image20.jpg","Cut_jazz_1.mp3","Both"
4739,"computer","32","1482.80000019073","3","Pre","image39.jpg","Cut_jazz_16.mp3","Both"
4739,"computer","33","2732.89999961853","4","Pre","image17.jpg","Classical_18.mp3","Image"
4739,"computer","34","2250.89999961853","2","Pre","image33.jpg","Classical_6.mp3","Music"
4739,"computer","35","2158.10000038147","6","Pre","image14.jpg","Classical_15.mp3","Music"
4739,"computer","36","1078.30000019073","1","Pre","image35.jpg","Classical_8.mp3","Image"
4739,"computer","37","2955","1","Pre","image4.jpg","Cut_jazz_14.mp3","Both"
4739,"computer","38","1707.5","6","Pre","image52.jpg","Classical_4.mp3","Image"
4739,"computer","39","1499.60000038147","3","Pre","image20.jpg","Cut_jazz_2.mp3","Music"
4739,"computer","40","1192.10000038147","1","Pre","image33.jpg","Classical_8.mp3","Both"
4739,"computer","41","1351","7","Pre","image2.jpg","Classical_19.mp3","Music"
4739,"computer","42","1482.30000019073","1","Pre","image34.jpg","Classical_7.mp3","Both"
4739,"computer","43","1999.30000019073","2","Pre","image5.jpg","Classical_1.mp3","Image"
4739,"computer","44","630.199999809265","1","Pre","image47.jpg","Classical_2.mp3","Image"
4739,"computer","45","993.300000190735","1","Pre","image15.jpg","Classical_15.mp3","Image"
4739,"computer","46","632.300000190735","1","Pre","image34.jpg","Classical_6.mp3","Image"
4739,"computer","47","1474","8","Pre","image12.jpg","Cut_jazz_10.mp3","Image"
4739,"computer","48","996.5","2","Pre","image2.jpg","Cut_jazz_2.mp3","Both"
4739,"computer","49","1231.4000005722","3","Pre","image4.jpg","Cut_jazz_16.mp3","Music"
4739,"computer","50","881.10000038147","6","Pre","image17.jpg","Classical_15.mp3","Both"
4739,"computer","51","696","1","Pre","image1.jpg","Cut_jazz_7.mp3","Image"
4739,"computer","52","791.60000038147","1","Pre","image15.jpg","Classical_18.mp3","Music"
4739,"computer","53","2297.30000019073","2","Pre","image17.jpg","Classical_17.mp3","Music"
4739,"computer","54","2003.4000005722","1","Pre","image47.jpg","Classical_4.mp3","Both"
4739,"computer","55","1602.39999961853","1","Pre","image34.jpg","Classical_8.mp3","Music"
4739,"computer","56","1120.4000005722","1","Pre","image36.jpg","Cut_jazz_16.mp3","Image"
4739,"computer","57","748.5","3","Pre","image39.jpg","Cut_jazz_19.mp3","Music"
4783,"computer","4","1099.89999999851","6","Pre","image14.jpg","Classical_6.mp3","Music"
4783,"computer","5","1315.79999999702","4","Pre","image33.jpg","Classical_15.mp3","Music"
4783,"computer","6","805","1","Pre","image15.jpg","Classical_8.mp3","Music"
4783,"computer","7","1665.60000000149","1","Pre","image1.jpg","Cut_jazz_19.mp3","Both"
4783,"computer","8","1519.79999999702","3","Pre","image52.jpg","Classical_4.mp3","Image"
4783,"computer","9","712.90000000596","3","Pre","image39.jpg","Cut_jazz_1.mp3","Both"
4783,"computer","10","1949.89999999851","7","Pre","image47.jpg","Classical_1.mp3","Music"
4783,"computer","11","1256.10000000149","1","Pre","image4.jpg","Cut_jazz_2.mp3","Image"
4783,"computer","12","1290.69999999553","3","Pre","image2.jpg","Cut_jazz_10.mp3","Both"
4783,"computer","13","1391.79999999702","3","Pre","image4.jpg","Classical_19.mp3","Both"
4783,"computer","14","1685.29999999702","3","Pre","image34.jpg","Classical_15.mp3","Image"
4783,"computer","15","3232.5","5","Pre","image39.jpg","Classical_19.mp3","Image"
4783,"computer","16","1261.39999999851","1","Pre","image15.jpg","Classical_7.mp3","Both"
4783,"computer","17","1452.80000000447","5","Pre","image1.jpg","Cut_jazz_14.mp3","Music"
4783,"computer","18","1527.5","1","Pre","image20.jpg","Cut_jazz_7.mp3","Both"
4783,"computer","19","1290.70000000298","5","Pre","image36.jpg","Classical_19.mp3","Music"
4783,"computer","20","817.5","1","Pre","image15.jpg","Classical_6.mp3","Image"
4783,"computer","21","1166.70000000298","8","Pre","image34.jpg","Classical_18.mp3","Music"
4783,"computer","22","1972","7","Pre","image5.jpg","Classical_1.mp3","Image"
4783,"computer","23","1215.69999999553","7","Pre","image3.jpg","Cut_jazz_10.mp3","Image"
4783,"computer","24","1726.29999999702","2","Pre","image47.jpg","Classical_4.mp3","Both"
4783,"computer","25","1516.30000000447","3","Pre","image17.jpg","Classical_7.mp3","Music"
4783,"computer","26","1374.89999999851","2","Pre","image2.jpg","Cut_jazz_5.mp3","Music"
4783,"computer","27","14697.1000000015","2","Pre","image35.jpg","Classical_17.mp3","Music"
4783,"computer","28","4231.69999999553","3","Pre","image10.jpg","Cut_jazz_19.mp3","Music"
4783,"computer","29","2276.89999999851","6","Pre","image34.jpg","Classical_17.mp3","Both"
4783,"computer","30","1428","1","Pre","image35.jpg","Classical_18.mp3","Image"
4783,"computer","31","3652.39999999851","3","Pre","image12.jpg","Cut_jazz_14.mp3","Both"
4783,"computer","32","1424.60000000149","5","Pre","image5.jpg","Classical_4.mp3","Music"
4783,"computer","33","782.10000000149","5","Pre","image35.jpg","Classical_15.mp3","Both"
4783,"computer","34","869.30000000447","4","Pre","image17.jpg","Classical_8.mp3","Image"
4783,"computer","35","1109.10000000149","3","Pre","image2.jpg","Cut_jazz_7.mp3","Image"
4783,"computer","36","1765.29999999702","1","Pre","image10.jpg","Cut_jazz_14.mp3","Image"
4783,"computer","37","14953.6000000015","5","Pre","image33.jpg","Classical_18.mp3","Both"
4783,"computer","38","2395.19999999553","7","Pre","image17.jpg","Classical_6.mp3","Both"
4783,"computer","39","1264.60000000149","6","Pre","image52.jpg","Classical_1.mp3","Both"
4783,"computer","40","4575.80000000447","3","Pre","image12.jpg","Cut_jazz_16.mp3","Music"
4783,"computer","41","865.89999999851","3","Pre","image4.jpg","Cut_jazz_1.mp3","Music"
4783,"computer","42","1171","6","Pre","image5.jpg","Classical_2.mp3","Both"
4783,"computer","43","880.60000000149","2","Pre","image39.jpg","Cut_jazz_2.mp3","Music"
4783,"computer","44","1598.69999999553","4","Pre","image52.jpg","Classical_2.mp3","Music"
4783,"computer","45","4541.39999999851","5","Pre","image14.jpg","Classical_7.mp3","Image"
4783,"computer","46","1229.20000000298","3","Pre","image3.jpg","Cut_jazz_5.mp3","Both"
4783,"computer","47","1297.20000000298","1","Pre","image33.jpg","Classical_17.mp3","Image"
4783,"computer","48","1118.30000000447","8","Pre","image14.jpg","Classical_8.mp3","Both"
4783,"computer","49","1231.89999999851","1","Pre","image20.jpg","Cut_jazz_10.mp3","Music"
4783,"computer","50","1005.79999999702","2","Pre","image47.jpg","Classical_2.mp3","Image"
4783,"computer","51","1086","1","Pre","image3.jpg","Cut_jazz_7.mp3","Music"
4783,"computer","52","1484","4","Pre","image10.jpg","Cut_jazz_16.mp3","Both"
4783,"computer","53","1500.59999999404","2","Pre","image12.jpg","Cut_jazz_19.mp3","Image"
4783,"computer","54","1937.89999999851","3","Pre","image36.jpg","Cut_jazz_2.mp3","Both"
4783,"computer","55","767.10000000149","3","Pre","image20.jpg","Cut_jazz_5.mp3","Image"
4783,"computer","56","921.10000000149","1","Pre","image36.jpg","Cut_jazz_1.mp3","Image"
4783,"computer","57","1056.59999999404","1","Pre","image1.jpg","Cut_jazz_16.mp3","Image"
4783,"computer","4","872.30000000447","8","Post","image14.jpg","Classical_17.mp3","Image"
4783,"computer","5","681.19999999553","7","Post","image36.jpg","Cut_jazz_14.mp3","Music"
4783,"computer","6","971.40000000596","3","Post","image39.jpg","Cut_jazz_19.mp3","Music"
4783,"computer","7","916.80000000447","3","Post","image15.jpg","Classical_17.mp3","Both"
4783,"computer","8","1125.80000000447","3","Post","image20.jpg","Cut_jazz_7.mp3","Both"
4783,"computer","9","1124.39999999851","4","Post","image2.jpg","Cut_jazz_10.mp3","Both"
4783,"computer","10","1189.70000000298","5","Post","image5.jpg","Classical_4.mp3","Music"
4783,"computer","11","626.89999999851","1","Post","image35.jpg","Cut_jazz_1.mp3","Music"
4783,"computer","12","744.09999999404","1","Post","image4.jpg","Cut_jazz_19.mp3","Image"
4783,"computer","13","1500.79999999702","2","Post","image14.jpg","Classical_18.mp3","Both"
4783,"computer","14","1273.30000000447","3","Post","image39.jpg","Cut_jazz_16.mp3","Both"
4783,"computer","15","990.10000000149","2","Post","image20.jpg","Cut_jazz_10.mp3","Music"
4783,"computer","16","3316.19999999553","5","Post","image36.jpg","Cut_jazz_19.mp3","Both"
4783,"computer","17","839.29999999702","1","Post","image15.jpg","Classical_15.mp3","Image"
4783,"computer","18","656.89999999851","2","Post","image52.jpg","Classical_4.mp3","Image"
