"Prolific_ID","Participant.Device.Type","Trial.Number","Reaction.Time","Response","stimulus","modality"
"5c911ccff618f500163a77bf","computer","1","1468","2","Classical_15.mp3","music"
"5c911ccff618f500163a77bf","computer","2","1113","5","Classical_1.mp3","music"
"5c911ccff618f500163a77bf","computer","3","1440","2","foil.mp3","music"
"5c911ccff618f500163a77bf","computer","4","1351","3","Classical_17.mp3","music"
"5c911ccff618f500163a77bf","computer","5","1340","6","Cut_jazz_19.mp3","music"
"5c911ccff618f500163a77bf","computer","6","1660","7","Classical_2.mp3","music"
"5c911ccff618f500163a77bf","computer","7","1397","7","Classical_8.mp3","music"
"5c911ccff618f500163a77bf","computer","8","950","2","Cut_jazz_16.mp3","music"
"5c911ccff618f500163a77bf","computer","9","1511","6","Cut_jazz_14.mp3","music"
"5c911ccff618f500163a77bf","computer","10","1471","5","Classical_6.mp3","music"
"5c911ccff618f500163a77bf","computer","11","720","1","Classical_4.mp3","music"
"5c911ccff618f500163a77bf","computer","12","1258","8","Classical_7.mp3","music"
"5c911ccff618f500163a77bf","computer","13","976","2","Cut_jazz_1.mp3","music"
"5c911ccff618f500163a77bf","computer","14","1283","8","Classical_19.mp3","music"
"5c911ccff618f500163a77bf","computer","15","1000","5","Cut_jazz_7.mp3","music"
"5c911ccff618f500163a77bf","computer","16","1177","2","Cut_jazz_10.mp3","music"
"5c911ccff618f500163a77bf","computer","17","1281","7","Cut_jazz_2.mp3","music"
"5c911ccff618f500163a77bf","computer","18","1000","6","Cut_jazz_5.mp3","music"
"5c911ccff618f500163a77bf","computer","19","1093","8","Classical_18.mp3","music"
"5df1fbdb99b2820fcfa3fa37","computer","1","3958","4","Cut_jazz_2.mp3","music"
"5df1fbdb99b2820fcfa3fa37","computer","2","2592","2","Classical_8.mp3","music"
"5df1fbdb99b2820fcfa3fa37","computer","3","2211","2","Classical_15.mp3","music"
"5df1fbdb99b2820fcfa3fa37","computer","4","1201","1","Cut_jazz_5.mp3","music"
"5df1fbdb99b2820fcfa3fa37","computer","5","1192","1","Classical_18.mp3","music"
"5df1fbdb99b2820fcfa3fa37","computer","6","3060","3","Classical_19.mp3","music"
"5df1fbdb99b2820fcfa3fa37","computer","7","866","2","Cut_jazz_7.mp3","music"
"5df1fbdb99b2820fcfa3fa37","computer","8","811","2","Classical_4.mp3","music"
"5df1fbdb99b2820fcfa3fa37","computer","9","14898","4","foil.mp3","music"
"5df1fbdb99b2820fcfa3fa37","computer","10","19005","2","Classical_6.mp3","music"
"5df1fbdb99b2820fcfa3fa37","computer","11","3776","3","Cut_jazz_14.mp3","music"
"5df1fbdb99b2820fcfa3fa37","computer","12","1814","1","Cut_jazz_19.mp3","music"
"5df1fbdb99b2820fcfa3fa37","computer","13","804","1","Cut_jazz_1.mp3","music"
"5df1fbdb99b2820fcfa3fa37","computer","14","863","1","Classical_2.mp3","music"
"5df1fbdb99b2820fcfa3fa37","computer","15","2024","3","Classical_7.mp3","music"
"5df1fbdb99b2820fcfa3fa37","computer","16","10788","2","Classical_17.mp3","music"
"5df1fbdb99b2820fcfa3fa37","computer","17","2806","4","Cut_jazz_10.mp3","music"
"5df1fbdb99b2820fcfa3fa37","computer","18","1619","6","Classical_1.mp3","music"
"5df1fbdb99b2820fcfa3fa37","computer","19","1259","2","Cut_jazz_16.mp3","music"
"5d42486206811e001ada5b4b","computer","1","3856.29999995232","8","Classical_7.mp3","music"
"5d42486206811e001ada5b4b","computer","2","1209.89999997616","6","Cut_jazz_10.mp3","music"
"5d42486206811e001ada5b4b","computer","3","1777.80000007153","5","Cut_jazz_1.mp3","music"
"5d42486206811e001ada5b4b","computer","4","1670.10000002384","8","Classical_6.mp3","music"
"5d42486206811e001ada5b4b","computer","5","2176.10000002384","8","Classical_15.mp3","music"
"5d42486206811e001ada5b4b","computer","6","1416.30000007153","7","Classical_4.mp3","music"
"5d42486206811e001ada5b4b","computer","7","1639.20000004768","8","Cut_jazz_5.mp3","music"
"5d42486206811e001ada5b4b","computer","8","1453.89999997616","9","Classical_1.mp3","music"
"5d42486206811e001ada5b4b","computer","9","1012.5","7","Cut_jazz_16.mp3","music"
"5d42486206811e001ada5b4b","computer","10","1252.90000009537","8","Cut_jazz_14.mp3","music"
"5d42486206811e001ada5b4b","computer","11","1520.89999997616","5","Classical_2.mp3","music"
"5d42486206811e001ada5b4b","computer","12","1036","6","Classical_19.mp3","music"
"5d42486206811e001ada5b4b","computer","13","1542.29999995232","6","Cut_jazz_7.mp3","music"
"5d42486206811e001ada5b4b","computer","14","966.100000023842","8","Classical_18.mp3","music"
"5d42486206811e001ada5b4b","computer","15","849.5","2","foil.mp3","music"
"5d42486206811e001ada5b4b","computer","16","1697.89999997616","6","Cut_jazz_19.mp3","music"
"5d42486206811e001ada5b4b","computer","17","1123.30000007153","7","Classical_8.mp3","music"
"5d42486206811e001ada5b4b","computer","18","1735.10000002384","5","Classical_17.mp3","music"
"5d42486206811e001ada5b4b","computer","19","1642.29999995232","8","Cut_jazz_2.mp3","music"
"5e0e1b8800a6bf000a694f79","computer","1","1592","5","Cut_jazz_1.mp3","music"
"5e0e1b8800a6bf000a694f79","computer","2","619","6","Cut_jazz_16.mp3","music"
"5e0e1b8800a6bf000a694f79","computer","3","1357","2","Classical_2.mp3","music"
"5e0e1b8800a6bf000a694f79","computer","4","731","4","Cut_jazz_2.mp3","music"
"5e0e1b8800a6bf000a694f79","computer","5","880","6","Classical_8.mp3","music"
"5e0e1b8800a6bf000a694f79","computer","6","1335","7","Cut_jazz_14.mp3","music"
"5e0e1b8800a6bf000a694f79","computer","7","835","4","Cut_jazz_5.mp3","music"
"5e0e1b8800a6bf000a694f79","computer","8","1009","2","foil.mp3","music"
"5e0e1b8800a6bf000a694f79","computer","9","1991","6","Cut_jazz_19.mp3","music"
"5e0e1b8800a6bf000a694f79","computer","10","1784","3","Classical_6.mp3","music"
"5e0e1b8800a6bf000a694f79","computer","11","854","5","Cut_jazz_7.mp3","music"
"5e0e1b8800a6bf000a694f79","computer","12","1437","2","Classical_17.mp3","music"
"5e0e1b8800a6bf000a694f79","computer","13","1774","6","Classical_18.mp3","music"
"5e0e1b8800a6bf000a694f79","computer","14","3250","5","Cut_jazz_10.mp3","music"
"5e0e1b8800a6bf000a694f79","computer","15","2154","4","Classical_15.mp3","music"
"5e0e1b8800a6bf000a694f79","computer","16","2107","7","Classical_19.mp3","music"
"5e0e1b8800a6bf000a694f79","computer","17","1212","5","Classical_7.mp3","music"
"5e0e1b8800a6bf000a694f79","computer","18","863","7","Classical_1.mp3","music"
"5e0e1b8800a6bf000a694f79","computer","19","1372","3","Classical_4.mp3","music"
"5f6e2f793c9b1032dbe72def","computer","1","5515","5","Cut_jazz_2.mp3","music"
"5f6e2f793c9b1032dbe72def","computer","2","945.5","6","Classical_17.mp3","music"
"5f6e2f793c9b1032dbe72def","computer","3","1255.80000001192","4","Classical_6.mp3","music"
"5f6e2f793c9b1032dbe72def","computer","4","801","5","Cut_jazz_7.mp3","music"
"5f6e2f793c9b1032dbe72def","computer","5","2055.30000001192","3","Classical_2.mp3","music"
"5f6e2f793c9b1032dbe72def","computer","6","1161.5","6","Cut_jazz_14.mp3","music"
"5f6e2f793c9b1032dbe72def","computer","7","687.5","6","Classical_19.mp3","music"
"5f6e2f793c9b1032dbe72def","computer","8","1422.89999997616","3","Cut_jazz_19.mp3","music"
"5f6e2f793c9b1032dbe72def","computer","9","1536.29999995232","2","Classical_18.mp3","music"
"5f6e2f793c9b1032dbe72def","computer","10","1172.5","3","Cut_jazz_16.mp3","music"
"5f6e2f793c9b1032dbe72def","computer","11","781.599999964237","3","Cut_jazz_1.mp3","music"
"5f6e2f793c9b1032dbe72def","computer","12","1057.69999998808","2","Cut_jazz_5.mp3","music"
"5f6e2f793c9b1032dbe72def","computer","13","1147.10000002384","2","foil.mp3","music"
"5f6e2f793c9b1032dbe72def","computer","14","2096","3","Cut_jazz_10.mp3","music"
"5f6e2f793c9b1032dbe72def","computer","15","2720.89999997616","4","Classical_15.mp3","music"
"5f6e2f793c9b1032dbe72def","computer","16","2081","2","Classical_4.mp3","music"
"5f6e2f793c9b1032dbe72def","computer","17","1239.10000002384","4","Classical_8.mp3","music"
"5f6e2f793c9b1032dbe72def","computer","18","1045.30000001192","5","Classical_1.mp3","music"
"5f6e2f793c9b1032dbe72def","computer","19","1580.69999998808","6","Classical_7.mp3","music"
"5db3471c116235000e419784","computer","1","1542","8","Classical_6.mp3","music"
"5db3471c116235000e419784","computer","2","2084","8","Classical_17.mp3","music"
"5db3471c116235000e419784","computer","3","927","8","Classical_15.mp3","music"
"5db3471c116235000e419784","computer","4","1689","2","foil.mp3","music"
"5db3471c116235000e419784","computer","5","1866","8","Classical_7.mp3","music"
"5db3471c116235000e419784","computer","6","989","1","Cut_jazz_5.mp3","music"
"5db3471c116235000e419784","computer","7","2071","2","Cut_jazz_2.mp3","music"
"5db3471c116235000e419784","computer","8","714","2","Cut_jazz_1.mp3","music"
"5db3471c116235000e419784","computer","9","1118","9","Classical_18.mp3","music"
"5db3471c116235000e419784","computer","10","1488","8","Classical_19.mp3","music"
"5db3471c116235000e419784","computer","11","1065","9","Classical_8.mp3","music"
"5db3471c116235000e419784","computer","12","1042","1","Cut_jazz_10.mp3","music"
"5db3471c116235000e419784","computer","13","1077","6","Classical_4.mp3","music"
"5db3471c116235000e419784","computer","14","1337","1","Cut_jazz_7.mp3","music"
"5db3471c116235000e419784","computer","15","1449","6","Classical_2.mp3","music"
"5db3471c116235000e419784","computer","16","1000","2","Cut_jazz_19.mp3","music"
"5db3471c116235000e419784","computer","17","1825","6","Classical_1.mp3","music"
"5db3471c116235000e419784","computer","18","1125","1","Cut_jazz_16.mp3","music"
"5db3471c116235000e419784","computer","19","1420","3","Cut_jazz_14.mp3","music"
"5d847ac9be4b0b00188463d7","computer","1","1349.59999999776","9","Cut_jazz_19.mp3","music"
"5d847ac9be4b0b00188463d7","computer","2","2450.80000000075","4","Cut_jazz_1.mp3","music"
"5d847ac9be4b0b00188463d7","computer","3","1734","2","foil.mp3","music"
"5d847ac9be4b0b00188463d7","computer","4","1176.19999999925","5","Classical_19.mp3","music"
"5d847ac9be4b0b00188463d7","computer","5","1384.39999999851","6","Classical_6.mp3","music"
"5d847ac9be4b0b00188463d7","computer","6","1421","5","Classical_17.mp3","music"
"5d847ac9be4b0b00188463d7","computer","7","757.300000000745","1","Cut_jazz_5.mp3","music"
"5d847ac9be4b0b00188463d7","computer","8","743.300000000745","2","Cut_jazz_10.mp3","music"
"5d847ac9be4b0b00188463d7","computer","9","1064.30000000075","6","Cut_jazz_7.mp3","music"
"5d847ac9be4b0b00188463d7","computer","10","641.5","7","Classical_1.mp3","music"
"5d847ac9be4b0b00188463d7","computer","11","3053.39999999851","5","Classical_2.mp3","music"
"5d847ac9be4b0b00188463d7","computer","12","791.199999999255","2","Cut_jazz_2.mp3","music"
"5d847ac9be4b0b00188463d7","computer","13","1279.5","5","Classical_15.mp3","music"
"5d847ac9be4b0b00188463d7","computer","14","1963.29999999702","2","Classical_8.mp3","music"
"5d847ac9be4b0b00188463d7","computer","15","772.599999997765","6","Classical_4.mp3","music"
"5d847ac9be4b0b00188463d7","computer","16","1482.60000000149","3","Cut_jazz_16.mp3","music"
"5d847ac9be4b0b00188463d7","computer","17","891.60000000149","5","Classical_18.mp3","music"
"5d847ac9be4b0b00188463d7","computer","18","1140.80000000075","9","Cut_jazz_14.mp3","music"
"5d847ac9be4b0b00188463d7","computer","19","1473.89999999851","6","Classical_7.mp3","music"
"606e3ddf19540080228e3a0c","computer","1","1759.30000000075","4","Classical_2.mp3","music"
"606e3ddf19540080228e3a0c","computer","2","1916.5","6","Classical_8.mp3","music"
"606e3ddf19540080228e3a0c","computer","3","987.199999999255","4","Cut_jazz_14.mp3","music"
"606e3ddf19540080228e3a0c","computer","4","1165.40000000224","7","Classical_19.mp3","music"
"606e3ddf19540080228e3a0c","computer","5","1339.29999999702","5","Classical_7.mp3","music"
"606e3ddf19540080228e3a0c","computer","6","789.89999999851","5","Cut_jazz_1.mp3","music"
"606e3ddf19540080228e3a0c","computer","7","1217.5","4","Cut_jazz_5.mp3","music"
"606e3ddf19540080228e3a0c","computer","8","445.5","4","Cut_jazz_19.mp3","music"
"606e3ddf19540080228e3a0c","computer","9","752.300000000745","3","Cut_jazz_2.mp3","music"
"606e3ddf19540080228e3a0c","computer","10","803.10000000149","5","Cut_jazz_7.mp3","music"
"606e3ddf19540080228e3a0c","computer","11","1397.69999999925","5","Classical_18.mp3","music"
"606e3ddf19540080228e3a0c","computer","12","2289.89999999851","2","foil.mp3","music"
"606e3ddf19540080228e3a0c","computer","13","959.199999999255","4","Cut_jazz_16.mp3","music"
"606e3ddf19540080228e3a0c","computer","14","623.199999999255","4","Classical_4.mp3","music"
"606e3ddf19540080228e3a0c","computer","15","434.800000000745","5","Classical_17.mp3","music"
"606e3ddf19540080228e3a0c","computer","16","860.699999999255","4","Classical_6.mp3","music"
"606e3ddf19540080228e3a0c","computer","17","583.300000000745","4","Classical_15.mp3","music"
"606e3ddf19540080228e3a0c","computer","18","750.199999999255","3","Cut_jazz_10.mp3","music"
"606e3ddf19540080228e3a0c","computer","19","1067.09999999776","4","Classical_1.mp3","music"
"5f963718a844b719781e9e85","computer","1","1525","4","Classical_1.mp3","music"
"5f963718a844b719781e9e85","computer","2","709","5","Cut_jazz_14.mp3","music"
"5f963718a844b719781e9e85","computer","3","801","3","Cut_jazz_2.mp3","music"
"5f963718a844b719781e9e85","computer","4","427","3","Cut_jazz_7.mp3","music"
"5f963718a844b719781e9e85","computer","5","581","6","Classical_7.mp3","music"
"5f963718a844b719781e9e85","computer","6","407","6","Classical_4.mp3","music"
"5f963718a844b719781e9e85","computer","7","577","6","Classical_17.mp3","music"
"5f963718a844b719781e9e85","computer","8","817","3","Classical_18.mp3","music"
"5f963718a844b719781e9e85","computer","9","1417","2","Cut_jazz_5.mp3","music"
"5f963718a844b719781e9e85","computer","10","1107","3","Classical_8.mp3","music"
"5f963718a844b719781e9e85","computer","11","538","1","Cut_jazz_10.mp3","music"
"5f963718a844b719781e9e85","computer","12","779","5","Classical_15.mp3","music"
"5f963718a844b719781e9e85","computer","13","1167","2","foil.mp3","music"
"5f963718a844b719781e9e85","computer","14","443","1","Cut_jazz_16.mp3","music"
"5f963718a844b719781e9e85","computer","15","406","5","Cut_jazz_1.mp3","music"
"5f963718a844b719781e9e85","computer","16","963","7","Classical_19.mp3","music"
"5f963718a844b719781e9e85","computer","17","652","4","Classical_6.mp3","music"
"5f963718a844b719781e9e85","computer","18","680","2","Cut_jazz_19.mp3","music"
"5f963718a844b719781e9e85","computer","19","1483","3","Classical_2.mp3","music"
"5c523d16102de10001022098","computer","1","1272","7","Classical_18.mp3","music"
"5c523d16102de10001022098","computer","2","845","7","Classical_7.mp3","music"
"5c523d16102de10001022098","computer","3","526.999999999998","3","Cut_jazz_5.mp3","music"
"5c523d16102de10001022098","computer","4","481","8","Classical_17.mp3","music"
"5c523d16102de10001022098","computer","5","1421","7","Cut_jazz_14.mp3","music"
"5c523d16102de10001022098","computer","6","782","3","Cut_jazz_10.mp3","music"
"5c523d16102de10001022098","computer","7","643.000000000004","4","Cut_jazz_7.mp3","music"
"5c523d16102de10001022098","computer","8","685","6","Classical_8.mp3","music"
"5c523d16102de10001022098","computer","9","1238","6","Classical_19.mp3","music"
"5c523d16102de10001022098","computer","10","423","7","Cut_jazz_1.mp3","music"
"5c523d16102de10001022098","computer","11","1099","6","Classical_6.mp3","music"
"5c523d16102de10001022098","computer","12","725.000000000007","6","Classical_2.mp3","music"
"5c523d16102de10001022098","computer","13","941","5","Classical_4.mp3","music"
"5c523d16102de10001022098","computer","14","1273.99999999999","3","Cut_jazz_2.mp3","music"
"5c523d16102de10001022098","computer","15","1198","3","Cut_jazz_19.mp3","music"
"5c523d16102de10001022098","computer","16","1156","2","foil.mp3","music"
"5c523d16102de10001022098","computer","17","628","4","Cut_jazz_16.mp3","music"
"5c523d16102de10001022098","computer","18","1821","6","Classical_15.mp3","music"
"5c523d16102de10001022098","computer","19","758","7","Classical_1.mp3","music"
"5b287b1a8ecf3f000161bc22","computer","1","2888","2","Cut_jazz_19.mp3","music"
"5b287b1a8ecf3f000161bc22","computer","2","2110","1","Classical_15.mp3","music"
"5b287b1a8ecf3f000161bc22","computer","3","1187","1","Cut_jazz_1.mp3","music"
"5b287b1a8ecf3f000161bc22","computer","4","2020","2","Classical_7.mp3","music"
"5b287b1a8ecf3f000161bc22","computer","5","1152","2","Classical_19.mp3","music"
"5b287b1a8ecf3f000161bc22","computer","6","1543","1","Classical_2.mp3","music"
"5b287b1a8ecf3f000161bc22","computer","7","1852","3","Cut_jazz_2.mp3","music"
"5b287b1a8ecf3f000161bc22","computer","8","1201","1","Classical_17.mp3","music"
"5b287b1a8ecf3f000161bc22","computer","9","1472","2","Classical_18.mp3","music"
"5b287b1a8ecf3f000161bc22","computer","10","1524","4","Cut_jazz_7.mp3","music"
"5b287b1a8ecf3f000161bc22","computer","11","901","4","Classical_1.mp3","music"
"5b287b1a8ecf3f000161bc22","computer","12","1619","1","Cut_jazz_16.mp3","music"
"5b287b1a8ecf3f000161bc22","computer","13","978","1","Classical_4.mp3","music"
"5b287b1a8ecf3f000161bc22","computer","14","1641","5","Cut_jazz_14.mp3","music"
"5b287b1a8ecf3f000161bc22","computer","15","1515","1","Cut_jazz_10.mp3","music"
"5b287b1a8ecf3f000161bc22","computer","16","1022","1","Cut_jazz_5.mp3","music"
"5b287b1a8ecf3f000161bc22","computer","17","1751","2","Classical_6.mp3","music"
"5b287b1a8ecf3f000161bc22","computer","18","1336","2","Classical_8.mp3","music"
"5b287b1a8ecf3f000161bc22","computer","19","1429","2","foil.mp3","music"
"5c80bcebfdb5c90001d11ad6","computer","1","4682.5","5","Classical_4.mp3","music"
"5c80bcebfdb5c90001d11ad6","computer","2","1041.70000000298","5","Cut_jazz_5.mp3","music"
"5c80bcebfdb5c90001d11ad6","computer","3","2377.5","4","Cut_jazz_14.mp3","music"
"5c80bcebfdb5c90001d11ad6","computer","4","2443.20000000298","5","Cut_jazz_16.mp3","music"
"5c80bcebfdb5c90001d11ad6","computer","5","895.5","6","Cut_jazz_7.mp3","music"
"5c80bcebfdb5c90001d11ad6","computer","6","1505","3","Cut_jazz_10.mp3","music"
"5c80bcebfdb5c90001d11ad6","computer","7","1117.5","2","foil.mp3","music"
"5c80bcebfdb5c90001d11ad6","computer","8","1273.20000000298","3","Classical_18.mp3","music"
"5c80bcebfdb5c90001d11ad6","computer","9","744","6","Cut_jazz_2.mp3","music"
"5c80bcebfdb5c90001d11ad6","computer","10","759.600000008941","7","Cut_jazz_1.mp3","music"
"5c80bcebfdb5c90001d11ad6","computer","11","765.100000008941","7","Classical_19.mp3","music"
"5c80bcebfdb5c90001d11ad6","computer","12","1705.19999998808","6","Classical_15.mp3","music"
"5c80bcebfdb5c90001d11ad6","computer","13","681.600000008941","5","Classical_7.mp3","music"
"5c80bcebfdb5c90001d11ad6","computer","14","457.70000000298","5","Classical_8.mp3","music"
"5c80bcebfdb5c90001d11ad6","computer","15","893.699999988079","3","Classical_17.mp3","music"
"5c80bcebfdb5c90001d11ad6","computer","16","738.70000000298","3","Classical_2.mp3","music"
"5c80bcebfdb5c90001d11ad6","computer","17","1941.19999998808","2","Classical_6.mp3","music"
"5c80bcebfdb5c90001d11ad6","computer","18","636.40000000596","4","Cut_jazz_19.mp3","music"
"5c80bcebfdb5c90001d11ad6","computer","19","583.300000011921","4","Classical_1.mp3","music"
"5fc2a17a6a0a5516d4d54125","computer","1","1905.39999997616","5","Classical_18.mp3","music"
"5fc2a17a6a0a5516d4d54125","computer","2","736.100000023842","6","Cut_jazz_7.mp3","music"
"5fc2a17a6a0a5516d4d54125","computer","3","1278.5","5","Classical_4.mp3","music"
"5fc2a17a6a0a5516d4d54125","computer","4","1408.29999995232","7","Cut_jazz_14.mp3","music"
"5fc2a17a6a0a5516d4d54125","computer","5","1398.5","2","Classical_6.mp3","music"
"5fc2a17a6a0a5516d4d54125","computer","6","885.399999976158","1","Cut_jazz_5.mp3","music"
"5fc2a17a6a0a5516d4d54125","computer","7","811.100000023842","3","Classical_1.mp3","music"
"5fc2a17a6a0a5516d4d54125","computer","8","649.700000047684","8","Classical_8.mp3","music"
"5fc2a17a6a0a5516d4d54125","computer","9","1252","6","Classical_2.mp3","music"
"5fc2a17a6a0a5516d4d54125","computer","10","1078.30000007153","6","Classical_19.mp3","music"
"5fc2a17a6a0a5516d4d54125","computer","11","1616.70000004768","8","Cut_jazz_1.mp3","music"
"5fc2a17a6a0a5516d4d54125","computer","12","519.5","2","Classical_17.mp3","music"
"5fc2a17a6a0a5516d4d54125","computer","13","1288.59999990463","3","Classical_7.mp3","music"
"5fc2a17a6a0a5516d4d54125","computer","14","1065.79999995232","4","Cut_jazz_10.mp3","music"
"5fc2a17a6a0a5516d4d54125","computer","15","737.799999952316","5","Cut_jazz_19.mp3","music"
"5fc2a17a6a0a5516d4d54125","computer","16","785.399999976158","5","Classical_15.mp3","music"
"5fc2a17a6a0a5516d4d54125","computer","17","3526.10000002384","2","foil.mp3","music"
"5fc2a17a6a0a5516d4d54125","computer","18","1035.09999990463","5","Cut_jazz_2.mp3","music"
"5fc2a17a6a0a5516d4d54125","computer","19","486","7","Cut_jazz_16.mp3","music"
"5f3c2648a9ef86a4c10de377","computer","1","2534.10000000149","6","Classical_7.mp3","music"
"5f3c2648a9ef86a4c10de377","computer","2","1151","2","Cut_jazz_10.mp3","music"
"5f3c2648a9ef86a4c10de377","computer","3","785","1","Classical_4.mp3","music"
"5f3c2648a9ef86a4c10de377","computer","4","1912.10000000149","4","Classical_15.mp3","music"
"5f3c2648a9ef86a4c10de377","computer","5","1543.19999999925","3","Cut_jazz_16.mp3","music"
"5f3c2648a9ef86a4c10de377","computer","6","1388.80000000075","4","Classical_6.mp3","music"
"5f3c2648a9ef86a4c10de377","computer","7","916.800000000745","6","Classical_17.mp3","music"
"5f3c2648a9ef86a4c10de377","computer","8","1042.90000000224","4","Cut_jazz_1.mp3","music"
"5f3c2648a9ef86a4c10de377","computer","9","811.60000000149","8","Classical_1.mp3","music"
"5f3c2648a9ef86a4c10de377","computer","10","741.300000000745","7","Classical_2.mp3","music"
"5f3c2648a9ef86a4c10de377","computer","11","489","4","Cut_jazz_5.mp3","music"
"5f3c2648a9ef86a4c10de377","computer","12","1574.10000000149","9","Cut_jazz_19.mp3","music"
"5f3c2648a9ef86a4c10de377","computer","13","1633.80000000075","7","Classical_8.mp3","music"
"5f3c2648a9ef86a4c10de377","computer","14","3587.39999999851","2","foil.mp3","music"
"5f3c2648a9ef86a4c10de377","computer","15","5916","7","Classical_19.mp3","music"
"5f3c2648a9ef86a4c10de377","computer","16","1662.20000000298","7","Cut_jazz_7.mp3","music"
"5f3c2648a9ef86a4c10de377","computer","17","1087.10000000149","4","Classical_18.mp3","music"
"5f3c2648a9ef86a4c10de377","computer","18","954.300000000745","9","Cut_jazz_2.mp3","music"
"5f3c2648a9ef86a4c10de377","computer","19","1239.19999999925","9","Cut_jazz_14.mp3","music"
"5d12423a1a6cf5001ecbe000","computer","1","1662.89999997616","5","Classical_15.mp3","music"
"5d12423a1a6cf5001ecbe000","computer","2","425.800000071526","2","Cut_jazz_2.mp3","music"
"5d12423a1a6cf5001ecbe000","computer","3","1169.19999992847","3","Classical_6.mp3","music"
"5d12423a1a6cf5001ecbe000","computer","4","370","2","Cut_jazz_7.mp3","music"
"5d12423a1a6cf5001ecbe000","computer","5","397.5","1","Cut_jazz_1.mp3","music"
"5d12423a1a6cf5001ecbe000","computer","6","520.700000047684","3","Cut_jazz_10.mp3","music"
"5d12423a1a6cf5001ecbe000","computer","7","433.200000047684","4","Cut_jazz_14.mp3","music"
"5d12423a1a6cf5001ecbe000","computer","8","381.5","4","Classical_18.mp3","music"
"5d12423a1a6cf5001ecbe000","computer","9","1526.20000004768","5","Classical_7.mp3","music"
"5d12423a1a6cf5001ecbe000","computer","10","410.5","5","Classical_17.mp3","music"
"5d12423a1a6cf5001ecbe000","computer","11","418.299999952316","6","Classical_1.mp3","music"
"5d12423a1a6cf5001ecbe000","computer","12","381.700000047684","3","Cut_jazz_5.mp3","music"
"5d12423a1a6cf5001ecbe000","computer","13","640.199999928474","2","foil.mp3","music"
"5d12423a1a6cf5001ecbe000","computer","14","1479.70000004768","2","Classical_4.mp3","music"
"5d12423a1a6cf5001ecbe000","computer","15","1108.80000007153","3","Classical_19.mp3","music"
"5d12423a1a6cf5001ecbe000","computer","16","2694.80000007153","2","Cut_jazz_19.mp3","music"
"5d12423a1a6cf5001ecbe000","computer","17","1135.30000007153","3","Classical_8.mp3","music"
"5d12423a1a6cf5001ecbe000","computer","18","473.300000071526","5","Classical_2.mp3","music"
"5d12423a1a6cf5001ecbe000","computer","19","678.100000023842","4","Cut_jazz_16.mp3","music"
"5c523d16102de10001022098","computer","1","1538","3","image39.jpg","images"
"5c523d16102de10001022098","computer","2","1764","6","image10.jpg","images"
"5c523d16102de10001022098","computer","3","983","1","image34.jpg","images"
"5c523d16102de10001022098","computer","4","1039","3","image20.jpg","images"
"5c523d16102de10001022098","computer","5","748","5","image3.jpg","images"
"5c523d16102de10001022098","computer","6","1141","6","image4.jpg","images"
"5c523d16102de10001022098","computer","7","791","6","image12.jpg","images"
"5c523d16102de10001022098","computer","8","1225","3","image36.jpg","images"
"5c523d16102de10001022098","computer","9","808","1","image47.jpg","images"
"5c523d16102de10001022098","computer","10","854","7","image17.jpg","images"
"5c523d16102de10001022098","computer","11","1141","3","image15.jpg","images"
"5c523d16102de10001022098","computer","12","623","3","image52.jpg","images"
"5c523d16102de10001022098","computer","13","838","8","image14.jpg","images"
"5c523d16102de10001022098","computer","14","2190.00000000001","1","image33.jpg","images"
"5c523d16102de10001022098","computer","15","814","4","image1.jpg","images"
"5c523d16102de10001022098","computer","16","793","1","image5.jpg","images"
"5c523d16102de10001022098","computer","17","598","8","image2.jpg","images"
"5c523d16102de10001022098","computer","18","530.000000000007","6","image35.jpg","images"
"5d847ac9be4b0b00188463d7","computer","1","2469.80000000075","6","image17.jpg","images"
"5d847ac9be4b0b00188463d7","computer","2","1187","1","image33.jpg","images"
"5d847ac9be4b0b00188463d7","computer","3","817.10000000149","5","image39.jpg","images"
"5d847ac9be4b0b00188463d7","computer","4","773.300000000745","1","image35.jpg","images"
"5d847ac9be4b0b00188463d7","computer","5","521.10000000149","1","image15.jpg","images"
"5d847ac9be4b0b00188463d7","computer","6","526.099999997765","1","image1.jpg","images"
"5d847ac9be4b0b00188463d7","computer","7","678.800000000745","2","image2.jpg","images"
"5d847ac9be4b0b00188463d7","computer","8","713.5","1","image47.jpg","images"
"5d847ac9be4b0b00188463d7","computer","9","661.300000000745","9","image20.jpg","images"
"5d847ac9be4b0b00188463d7","computer","10","932.89999999851","7","image5.jpg","images"
"5d847ac9be4b0b00188463d7","computer","11","961.199999999255","1","image4.jpg","images"
"5d847ac9be4b0b00188463d7","computer","12","559.699999999255","1","image12.jpg","images"
"5d847ac9be4b0b00188463d7","computer","13","6396.39999999851","2","image14.jpg","images"
"5d847ac9be4b0b00188463d7","computer","14","673.900000002235","1","image36.jpg","images"
"5d847ac9be4b0b00188463d7","computer","15","362.699999999255","1","image34.jpg","images"
"5d847ac9be4b0b00188463d7","computer","16","416.599999997765","1","image10.jpg","images"
"5d847ac9be4b0b00188463d7","computer","17","1398.39999999851","4","image52.jpg","images"
"5d847ac9be4b0b00188463d7","computer","18","1073","5","image3.jpg","images"
"5db3471c116235000e419784","computer","1","2774","7","image2.jpg","images"
"5db3471c116235000e419784","computer","2","959","7","image15.jpg","images"
"5db3471c116235000e419784","computer","3","1413","3","image4.jpg","images"
"5db3471c116235000e419784","computer","4","935","4","image34.jpg","images"
"5db3471c116235000e419784","computer","5","1164","9","image5.jpg","images"
"5db3471c116235000e419784","computer","6","1452","5","image12.jpg","images"
"5db3471c116235000e419784","computer","7","3390","2","image10.jpg","images"
"5db3471c116235000e419784","computer","8","1380","5","image39.jpg","images"
"5db3471c116235000e419784","computer","9","1143","4","image52.jpg","images"
"5db3471c116235000e419784","computer","10","1076","9","image3.jpg","images"
"5db3471c116235000e419784","computer","11","947","2","image36.jpg","images"
"5db3471c116235000e419784","computer","12","919","4","image1.jpg","images"
"5db3471c116235000e419784","computer","13","946","9","image17.jpg","images"
"5db3471c116235000e419784","computer","14","2824","4","image20.jpg","images"
"5db3471c116235000e419784","computer","15","889","4","image33.jpg","images"
"5db3471c116235000e419784","computer","16","1150","7","image35.jpg","images"
"5db3471c116235000e419784","computer","17","1007","8","image47.jpg","images"
"5db3471c116235000e419784","computer","18","1036","9","image14.jpg","images"
"5f6e2f793c9b1032dbe72def","computer","1","2311.80000001192","7","image12.jpg","images"
"5f6e2f793c9b1032dbe72def","computer","2","1427.70000004768","4","image52.jpg","images"
"5f6e2f793c9b1032dbe72def","computer","3","2363.90000003576","6","image14.jpg","images"
"5f6e2f793c9b1032dbe72def","computer","4","1496.40000003576","1","image10.jpg","images"
"5f6e2f793c9b1032dbe72def","computer","5","1575.5","2","image2.jpg","images"
"5f6e2f793c9b1032dbe72def","computer","6","2724.30000001192","1","image36.jpg","images"
"5f6e2f793c9b1032dbe72def","computer","7","2035.69999998808","7","image15.jpg","images"
"5f6e2f793c9b1032dbe72def","computer","8","2570.19999998808","1","image34.jpg","images"
"5f6e2f793c9b1032dbe72def","computer","9","1203.40000003576","2","image47.jpg","images"
"5f6e2f793c9b1032dbe72def","computer","10","1866.10000002384","8","image17.jpg","images"
"5f6e2f793c9b1032dbe72def","computer","11","1334.89999997616","9","image5.jpg","images"
"5f6e2f793c9b1032dbe72def","computer","12","1958.59999996424","3","image1.jpg","images"
"5f6e2f793c9b1032dbe72def","computer","13","3201.30000001192","6","image3.jpg","images"
"5f6e2f793c9b1032dbe72def","computer","14","1700.80000001192","4","image39.jpg","images"
"5f6e2f793c9b1032dbe72def","computer","15","3849.5","4","image4.jpg","images"
"5f6e2f793c9b1032dbe72def","computer","16","1635.10000002384","3","image20.jpg","images"
"5f6e2f793c9b1032dbe72def","computer","17","1889.39999997616","2","image35.jpg","images"
"5f6e2f793c9b1032dbe72def","computer","18","1443.29999995232","1","image33.jpg","images"
"5e0e1b8800a6bf000a694f79","computer","1","1558","3","image15.jpg","images"
"5e0e1b8800a6bf000a694f79","computer","2","754","6","image39.jpg","images"
"5e0e1b8800a6bf000a694f79","computer","3","969","7","image2.jpg","images"
"5e0e1b8800a6bf000a694f79","computer","4","728","8","image17.jpg","images"
"5e0e1b8800a6bf000a694f79","computer","5","798","4","image20.jpg","images"
"5e0e1b8800a6bf000a694f79","computer","6","825","4","image5.jpg","images"
"5e0e1b8800a6bf000a694f79","computer","7","697","5","image12.jpg","images"
"5e0e1b8800a6bf000a694f79","computer","8","754","8","image3.jpg","images"
"5e0e1b8800a6bf000a694f79","computer","9","630","1","image35.jpg","images"
"5e0e1b8800a6bf000a694f79","computer","10","658","5","image14.jpg","images"
"5e0e1b8800a6bf000a694f79","computer","11","764","7","image52.jpg","images"
"5e0e1b8800a6bf000a694f79","computer","12","909","9","image47.jpg","images"
"5e0e1b8800a6bf000a694f79","computer","13","1101","3","image36.jpg","images"
"5e0e1b8800a6bf000a694f79","computer","14","933","4","image34.jpg","images"
"5e0e1b8800a6bf000a694f79","computer","15","780","4","image33.jpg","images"
"5e0e1b8800a6bf000a694f79","computer","16","1305","2","image10.jpg","images"
"5e0e1b8800a6bf000a694f79","computer","17","788","3","image1.jpg","images"
"5e0e1b8800a6bf000a694f79","computer","18","804","2","image4.jpg","images"
"5d42486206811e001ada5b4b","computer","1","2045","3","image4.jpg","images"
"5d42486206811e001ada5b4b","computer","2","1163.10000002384","2","image52.jpg","images"
"5d42486206811e001ada5b4b","computer","3","1075.79999995232","8","image17.jpg","images"
"5d42486206811e001ada5b4b","computer","4","1089.69999992847","8","image2.jpg","images"
"5d42486206811e001ada5b4b","computer","5","1609.39999997616","1","image1.jpg","images"
"5d42486206811e001ada5b4b","computer","6","977.599999904633","8","image3.jpg","images"
"5d42486206811e001ada5b4b","computer","7","1310","3","image10.jpg","images"
"5d42486206811e001ada5b4b","computer","8","1119.79999995232","2","image33.jpg","images"
"5d42486206811e001ada5b4b","computer","9","1471.29999995232","2","image35.jpg","images"
"5d42486206811e001ada5b4b","computer","10","1566.39999997616","9","image14.jpg","images"
"5d42486206811e001ada5b4b","computer","11","1671.70000004768","8","image12.jpg","images"
"5d42486206811e001ada5b4b","computer","12","1198.19999992847","9","image5.jpg","images"
"5d42486206811e001ada5b4b","computer","13","1273.89999997616","1","image34.jpg","images"
"5d42486206811e001ada5b4b","computer","14","978","6","image15.jpg","images"
"5d42486206811e001ada5b4b","computer","15","947.700000047684","9","image20.jpg","images"
"5d42486206811e001ada5b4b","computer","16","1178.89999997616","1","image47.jpg","images"
"5d42486206811e001ada5b4b","computer","17","1944.5","3","image36.jpg","images"
"5d42486206811e001ada5b4b","computer","18","1089.5","9","image39.jpg","images"
"606e3ddf19540080228e3a0c","computer","1","1462.60000000149","5","image5.jpg","images"
"606e3ddf19540080228e3a0c","computer","2","841.300000000745","8","image12.jpg","images"
"606e3ddf19540080228e3a0c","computer","3","944.300000000745","7","image1.jpg","images"
"606e3ddf19540080228e3a0c","computer","4","1068","5","image4.jpg","images"
"606e3ddf19540080228e3a0c","computer","5","1071.89999999851","3","image20.jpg","images"
"606e3ddf19540080228e3a0c","computer","6","737.10000000149","1","image33.jpg","images"
"606e3ddf19540080228e3a0c","computer","7","1076.10000000149","3","image47.jpg","images"
"606e3ddf19540080228e3a0c","computer","8","838.800000000745","8","image39.jpg","images"
"606e3ddf19540080228e3a0c","computer","9","944.20000000298","7","image3.jpg","images"
"606e3ddf19540080228e3a0c","computer","10","876.800000000745","5","image15.jpg","images"
"606e3ddf19540080228e3a0c","computer","11","1132.5","1","image35.jpg","images"
"606e3ddf19540080228e3a0c","computer","12","1087","5","image14.jpg","images"
"606e3ddf19540080228e3a0c","computer","13","881.89999999851","1","image34.jpg","images"
"606e3ddf19540080228e3a0c","computer","14","859.70000000298","6","image10.jpg","images"
"606e3ddf19540080228e3a0c","computer","15","1364.80000000075","6","image17.jpg","images"
"606e3ddf19540080228e3a0c","computer","16","1133.09999999776","4","image2.jpg","images"
"606e3ddf19540080228e3a0c","computer","17","869.5","7","image36.jpg","images"
"606e3ddf19540080228e3a0c","computer","18","1263.09999999776","4","image52.jpg","images"
"5b287b1a8ecf3f000161bc22","computer","1","2293","6","image17.jpg","images"
"5b287b1a8ecf3f000161bc22","computer","2","863","6","image5.jpg","images"
"5b287b1a8ecf3f000161bc22","computer","3","2443","1","image36.jpg","images"
"5b287b1a8ecf3f000161bc22","computer","4","1505","2","image10.jpg","images"
"5b287b1a8ecf3f000161bc22","computer","5","919","2","image4.jpg","images"
"5b287b1a8ecf3f000161bc22","computer","6","1328","1","image35.jpg","images"
"5b287b1a8ecf3f000161bc22","computer","7","1299","4","image20.jpg","images"
"5b287b1a8ecf3f000161bc22","computer","8","1214","6","image14.jpg","images"
"5b287b1a8ecf3f000161bc22","computer","9","1252","4","image52.jpg","images"
"5b287b1a8ecf3f000161bc22","computer","10","1166","1","image34.jpg","images"
"5b287b1a8ecf3f000161bc22","computer","11","1411","5","image12.jpg","images"
"5b287b1a8ecf3f000161bc22","computer","12","1380","2","image1.jpg","images"
"5b287b1a8ecf3f000161bc22","computer","13","1054","1","image15.jpg","images"
"5b287b1a8ecf3f000161bc22","computer","14","1315","4","image2.jpg","images"
"5b287b1a8ecf3f000161bc22","computer","15","1165","1","image33.jpg","images"
"5b287b1a8ecf3f000161bc22","computer","16","1077","5","image3.jpg","images"
"5b287b1a8ecf3f000161bc22","computer","17","1295","3","image47.jpg","images"
"5b287b1a8ecf3f000161bc22","computer","18","1335","2","image39.jpg","images"
"5df1fbdb99b2820fcfa3fa37","computer","1","1168","1","image4.jpg","images"
"5df1fbdb99b2820fcfa3fa37","computer","2","619","1","image36.jpg","images"
"5df1fbdb99b2820fcfa3fa37","computer","3","838","5","image17.jpg","images"
"5df1fbdb99b2820fcfa3fa37","computer","4","1280","2","image33.jpg","images"
"5df1fbdb99b2820fcfa3fa37","computer","5","1578","7","image52.jpg","images"
"5df1fbdb99b2820fcfa3fa37","computer","6","1011","2","image35.jpg","images"
"5df1fbdb99b2820fcfa3fa37","computer","7","803","7","image20.jpg","images"
"5df1fbdb99b2820fcfa3fa37","computer","8","900","9","image14.jpg","images"
"5df1fbdb99b2820fcfa3fa37","computer","9","1515","1","image15.jpg","images"
"5df1fbdb99b2820fcfa3fa37","computer","10","1141","6","image3.jpg","images"
"5df1fbdb99b2820fcfa3fa37","computer","11","808","3","image5.jpg","images"
"5df1fbdb99b2820fcfa3fa37","computer","12","884","1","image1.jpg","images"
"5df1fbdb99b2820fcfa3fa37","computer","13","819","9","image12.jpg","images"
"5df1fbdb99b2820fcfa3fa37","computer","14","564","9","image2.jpg","images"
"5df1fbdb99b2820fcfa3fa37","computer","15","819","1","image10.jpg","images"
"5df1fbdb99b2820fcfa3fa37","computer","16","684","1","image47.jpg","images"
"5df1fbdb99b2820fcfa3fa37","computer","17","544","1","image34.jpg","images"
"5df1fbdb99b2820fcfa3fa37","computer","18","773","6","image39.jpg","images"
"5d12423a1a6cf5001ecbe000","computer","1","849.799999952316","2","image47.jpg","images"
"5d12423a1a6cf5001ecbe000","computer","2","536.599999904633","2","image12.jpg","images"
"5d12423a1a6cf5001ecbe000","computer","3","611.600000023842","7","image17.jpg","images"
"5d12423a1a6cf5001ecbe000","computer","4","465.799999952316","2","image52.jpg","images"
"5d12423a1a6cf5001ecbe000","computer","5","548.800000071526","3","image5.jpg","images"
"5d12423a1a6cf5001ecbe000","computer","6","376.199999928474","3","image39.jpg","images"
"5d12423a1a6cf5001ecbe000","computer","7","613.200000047684","1","image10.jpg","images"
"5d12423a1a6cf5001ecbe000","computer","8","370.600000023842","1","image34.jpg","images"
"5d12423a1a6cf5001ecbe000","computer","9","708.899999976158","9","image14.jpg","images"
"5d12423a1a6cf5001ecbe000","computer","10","540.199999928474","1","image33.jpg","images"
"5d12423a1a6cf5001ecbe000","computer","11","358.800000071526","1","image36.jpg","images"
"5d12423a1a6cf5001ecbe000","computer","12","817","7","image3.jpg","images"
"5d12423a1a6cf5001ecbe000","computer","13","407.700000047684","6","image20.jpg","images"
"5d12423a1a6cf5001ecbe000","computer","14","867.699999928474","1","image1.jpg","images"
"5d12423a1a6cf5001ecbe000","computer","15","525.300000071526","1","image15.jpg","images"
"5d12423a1a6cf5001ecbe000","computer","16","470.5","2","image35.jpg","images"
"5d12423a1a6cf5001ecbe000","computer","17","421.599999904633","1","image4.jpg","images"
"5d12423a1a6cf5001ecbe000","computer","18","535","7","image2.jpg","images"
"5c80bcebfdb5c90001d11ad6","computer","1","2678.30000001192","1","image36.jpg","images"
"5c80bcebfdb5c90001d11ad6","computer","2","850.40000000596","1","image39.jpg","images"
"5c80bcebfdb5c90001d11ad6","computer","3","442.70000000298","1","image52.jpg","images"
"5c80bcebfdb5c90001d11ad6","computer","4","1086.29999999702","4","image5.jpg","images"
"5c80bcebfdb5c90001d11ad6","computer","5","888.20000000298","3","image3.jpg","images"
"5c80bcebfdb5c90001d11ad6","computer","6","892.20000000298","8","image14.jpg","images"
"5c80bcebfdb5c90001d11ad6","computer","7","2799.39999999106","6","image12.jpg","images"
"5c80bcebfdb5c90001d11ad6","computer","8","1707.10000000894","2","image1.jpg","images"
"5c80bcebfdb5c90001d11ad6","computer","9","1015.69999998808","3","image2.jpg","images"
"5c80bcebfdb5c90001d11ad6","computer","10","806.09999999404","1","image33.jpg","images"
"5c80bcebfdb5c90001d11ad6","computer","11","544.29999999702","1","image47.jpg","images"
"5c80bcebfdb5c90001d11ad6","computer","12","441.59999999404","1","image34.jpg","images"
"5c80bcebfdb5c90001d11ad6","computer","13","746.5","2","image10.jpg","images"
"5c80bcebfdb5c90001d11ad6","computer","14","1061.30000001192","4","image35.jpg","images"
"5c80bcebfdb5c90001d11ad6","computer","15","908.59999999404","6","image4.jpg","images"
"5c80bcebfdb5c90001d11ad6","computer","16","772.899999991059","5","image15.jpg","images"
"5c80bcebfdb5c90001d11ad6","computer","17","758.40000000596","4","image20.jpg","images"
"5c80bcebfdb5c90001d11ad6","computer","18","756.59999999404","4","image17.jpg","images"
"5fc2a17a6a0a5516d4d54125","computer","1","976.300000071526","1","image15.jpg","images"
"5fc2a17a6a0a5516d4d54125","computer","2","759.600000023842","7","image4.jpg","images"
"5fc2a17a6a0a5516d4d54125","computer","3","911.399999976158","6","image10.jpg","images"
"5fc2a17a6a0a5516d4d54125","computer","4","789.600000023842","8","image47.jpg","images"
"5fc2a17a6a0a5516d4d54125","computer","5","1147.5","4","image14.jpg","images"
"5fc2a17a6a0a5516d4d54125","computer","6","1424.79999995232","4","image33.jpg","images"
"5fc2a17a6a0a5516d4d54125","computer","7","808.699999928474","1","image35.jpg","images"
"5fc2a17a6a0a5516d4d54125","computer","8","662.700000047684","4","image5.jpg","images"
"5fc2a17a6a0a5516d4d54125","computer","9","660.800000071526","2","image2.jpg","images"
"5fc2a17a6a0a5516d4d54125","computer","10","1239","9","image39.jpg","images"
"5fc2a17a6a0a5516d4d54125","computer","11","925","7","image36.jpg","images"
"5fc2a17a6a0a5516d4d54125","computer","12","961.299999952316","4","image1.jpg","images"
"5fc2a17a6a0a5516d4d54125","computer","13","2520.70000004768","2","image17.jpg","images"
"5fc2a17a6a0a5516d4d54125","computer","14","529.200000047684","2","image34.jpg","images"
"5fc2a17a6a0a5516d4d54125","computer","15","945.100000023842","2","image20.jpg","images"
"5fc2a17a6a0a5516d4d54125","computer","16","1112.89999997616","3","image3.jpg","images"
"5fc2a17a6a0a5516d4d54125","computer","17","718.300000071526","2","image12.jpg","images"
"5fc2a17a6a0a5516d4d54125","computer","18","946.799999952316","8","image52.jpg","images"
"5f3c2648a9ef86a4c10de377","computer","1","1157.19999999925","2","image4.jpg","images"
"5f3c2648a9ef86a4c10de377","computer","2","1106.5","8","image2.jpg","images"
"5f3c2648a9ef86a4c10de377","computer","3","1772.90000000224","1","image1.jpg","images"
"5f3c2648a9ef86a4c10de377","computer","4","2065.19999999925","2","image10.jpg","images"
"5f3c2648a9ef86a4c10de377","computer","5","1029.10000000149","9","image12.jpg","images"
"5f3c2648a9ef86a4c10de377","computer","6","1331.5","3","image36.jpg","images"
"5f3c2648a9ef86a4c10de377","computer","7","1577.59999999776","1","image34.jpg","images"
"5f3c2648a9ef86a4c10de377","computer","8","1721.40000000224","7","image5.jpg","images"
"5f3c2648a9ef86a4c10de377","computer","9","1801","4","image52.jpg","images"
"5f3c2648a9ef86a4c10de377","computer","10","1118.10000000149","8","image14.jpg","images"
"5f3c2648a9ef86a4c10de377","computer","11","1159.39999999851","2","image35.jpg","images"
"5f3c2648a9ef86a4c10de377","computer","12","1227.89999999851","7","image20.jpg","images"
"5f3c2648a9ef86a4c10de377","computer","13","3540","9","image17.jpg","images"
"5f3c2648a9ef86a4c10de377","computer","14","1891.59999999776","3","image39.jpg","images"
"5f3c2648a9ef86a4c10de377","computer","15","1018.10000000149","3","image33.jpg","images"
"5f3c2648a9ef86a4c10de377","computer","16","704.5","5","image3.jpg","images"
"5f3c2648a9ef86a4c10de377","computer","17","1061.19999999925","1","image15.jpg","images"
"5f3c2648a9ef86a4c10de377","computer","18","1044.70000000298","8","image47.jpg","images"
"5c911ccff618f500163a77bf","computer","1","2065","8","image17.jpg","images"
"5c911ccff618f500163a77bf","computer","2","868","9","image14.jpg","images"
"5c911ccff618f500163a77bf","computer","3","820","1","image34.jpg","images"
"5c911ccff618f500163a77bf","computer","4","1300","5","image2.jpg","images"
"5c911ccff618f500163a77bf","computer","5","790","9","image12.jpg","images"
"5c911ccff618f500163a77bf","computer","6","853","7","image3.jpg","images"
"5c911ccff618f500163a77bf","computer","7","1188","8","image20.jpg","images"
"5c911ccff618f500163a77bf","computer","8","1241","3","image4.jpg","images"
"5c911ccff618f500163a77bf","computer","9","1023","6","image1.jpg","images"
"5c911ccff618f500163a77bf","computer","10","896","8","image52.jpg","images"
"5c911ccff618f500163a77bf","computer","11","751","5","image35.jpg","images"
"5c911ccff618f500163a77bf","computer","12","1061","6","image39.jpg","images"
"5c911ccff618f500163a77bf","computer","13","790","9","image5.jpg","images"
"5c911ccff618f500163a77bf","computer","14","901","4","image36.jpg","images"
"5c911ccff618f500163a77bf","computer","15","710","9","image47.jpg","images"
"5c911ccff618f500163a77bf","computer","16","904","1","image15.jpg","images"
"5c911ccff618f500163a77bf","computer","17","970","6","image10.jpg","images"
"5c911ccff618f500163a77bf","computer","18","646","1","image33.jpg","images"
"5f963718a844b719781e9e85","computer","1","1079","7","image14.jpg","images"
"5f963718a844b719781e9e85","computer","2","1082","2","image10.jpg","images"
"5f963718a844b719781e9e85","computer","3","906","7","image5.jpg","images"
"5f963718a844b719781e9e85","computer","4","796","2","image12.jpg","images"
"5f963718a844b719781e9e85","computer","5","1191","8","image36.jpg","images"
"5f963718a844b719781e9e85","computer","6","723","8","image33.jpg","images"
"5f963718a844b719781e9e85","computer","7","1079","2","image1.jpg","images"
"5f963718a844b719781e9e85","computer","8","714","6","image35.jpg","images"
"5f963718a844b719781e9e85","computer","9","698","6","image39.jpg","images"
"5f963718a844b719781e9e85","computer","10","397","6","image20.jpg","images"
"5f963718a844b719781e9e85","computer","11","1270","2","image4.jpg","images"
"5f963718a844b719781e9e85","computer","12","809","7","image34.jpg","images"
"5f963718a844b719781e9e85","computer","13","1063","5","image3.jpg","images"
"5f963718a844b719781e9e85","computer","14","1034","7","image17.jpg","images"
"5f963718a844b719781e9e85","computer","15","1060","2","image15.jpg","images"
"5f963718a844b719781e9e85","computer","16","1252","7","image2.jpg","images"
"5f963718a844b719781e9e85","computer","17","1269","6","image52.jpg","images"
"5f963718a844b719781e9e85","computer","18","1222","2","image47.jpg","images"
"5fef6fc8b890b1dd5a155e6a","computer","1","7241.10000000056","7","image12.jpg","images"
"5fef6fc8b890b1dd5a155e6a","computer","2","7295.20000000019","7","image33.jpg","images"
"5fef6fc8b890b1dd5a155e6a","computer","3","1617.29999999981","8","image2.jpg","images"
"5fef6fc8b890b1dd5a155e6a","computer","4","2075.39999999944","2","image39.jpg","images"
"5fef6fc8b890b1dd5a155e6a","computer","5","2125.5","8","image20.jpg","images"
"5fef6fc8b890b1dd5a155e6a","computer","6","2311.79999999981","9","image14.jpg","images"
"5fef6fc8b890b1dd5a155e6a","computer","7","1717.39999999944","7","image35.jpg","images"
"5fef6fc8b890b1dd5a155e6a","computer","8","1525.70000000019","9","image5.jpg","images"
"5fef6fc8b890b1dd5a155e6a","computer","9","1822.10000000056","8","image34.jpg","images"
"5fef6fc8b890b1dd5a155e6a","computer","10","5226.60000000056","6","image36.jpg","images"
"5fef6fc8b890b1dd5a155e6a","computer","11","1423.5","1","image15.jpg","images"
"5fef6fc8b890b1dd5a155e6a","computer","12","1332.20000000019","9","image47.jpg","images"
"5fef6fc8b890b1dd5a155e6a","computer","13","1697.20000000019","9","image17.jpg","images"
"5fef6fc8b890b1dd5a155e6a","computer","14","1525.59999999963","8","image1.jpg","images"
"5fef6fc8b890b1dd5a155e6a","computer","15","1696.10000000056","9","image3.jpg","images"
"5fef6fc8b890b1dd5a155e6a","computer","16","1940.70000000019","2","image4.jpg","images"
"5fef6fc8b890b1dd5a155e6a","computer","17","2157.69999999925","2","image10.jpg","images"
"5fef6fc8b890b1dd5a155e6a","computer","18","2057.79999999981","6","image52.jpg","images"
"558acd52fdf99b65685f03d9","computer","1","6080.5","3","image47.jpg","images"
"558acd52fdf99b65685f03d9","computer","2","2786.5","4","image17.jpg","images"
"558acd52fdf99b65685f03d9","computer","3","3624","2","image20.jpg","images"
"558acd52fdf99b65685f03d9","computer","4","1578.29999999702","1","image35.jpg","images"
"558acd52fdf99b65685f03d9","computer","5","983.5","1","image52.jpg","images"
"558acd52fdf99b65685f03d9","computer","6","1284.20000000298","1","image12.jpg","images"
"558acd52fdf99b65685f03d9","computer","7","1434.5","1","image5.jpg","images"
"558acd52fdf99b65685f03d9","computer","8","1365.39999999106","1","image33.jpg","images"
"558acd52fdf99b65685f03d9","computer","9","1530.19999998808","1","image36.jpg","images"
"558acd52fdf99b65685f03d9","computer","10","905.399999991059","1","image10.jpg","images"
"558acd52fdf99b65685f03d9","computer","11","1450.19999998808","1","image2.jpg","images"
"558acd52fdf99b65685f03d9","computer","12","819.40000000596","1","image1.jpg","images"
"558acd52fdf99b65685f03d9","computer","13","1211.79999999702","4","image14.jpg","images"
"558acd52fdf99b65685f03d9","computer","14","905","1","image34.jpg","images"
"558acd52fdf99b65685f03d9","computer","15","1310.09999999404","2","image3.jpg","images"
"558acd52fdf99b65685f03d9","computer","16","958.70000000298","2","image15.jpg","images"
"558acd52fdf99b65685f03d9","computer","17","909.20000000298","1","image39.jpg","images"
"558acd52fdf99b65685f03d9","computer","18","634.90000000596","1","image4.jpg","images"
"5f40f1a20f691d2491077a83","computer","1","3539","5","image52.jpg","images"
"5f40f1a20f691d2491077a83","computer","2","1987","4","image15.jpg","images"
"5f40f1a20f691d2491077a83","computer","3","1872","8","image17.jpg","images"
"5f40f1a20f691d2491077a83","computer","4","1186","1","image1.jpg","images"
"5f40f1a20f691d2491077a83","computer","5","1485","3","image36.jpg","images"
"5f40f1a20f691d2491077a83","computer","6","1432","6","image39.jpg","images"
"5f40f1a20f691d2491077a83","computer","7","1930","8","image5.jpg","images"
"5f40f1a20f691d2491077a83","computer","8","1455","6","image20.jpg","images"
"5f40f1a20f691d2491077a83","computer","9","1739","8","image12.jpg","images"
"5f40f1a20f691d2491077a83","computer","10","2225","3","image10.jpg","images"
"5f40f1a20f691d2491077a83","computer","11","1324","2","image2.jpg","images"
"5f40f1a20f691d2491077a83","computer","12","1550","6","image3.jpg","images"
"5f40f1a20f691d2491077a83","computer","13","1131","2","image35.jpg","images"
"5f40f1a20f691d2491077a83","computer","14","1561","7","image14.jpg","images"
"5f40f1a20f691d2491077a83","computer","15","1262","1","image33.jpg","images"
"5f40f1a20f691d2491077a83","computer","16","1276","2","image4.jpg","images"
"5f40f1a20f691d2491077a83","computer","17","1137","1","image47.jpg","images"
"5f40f1a20f691d2491077a83","computer","18","1128","1","image34.jpg","images"
"6077afdfc5a87e629ae6fab1","computer","1","1842.79999998212","9","image3.jpg","images"
"6077afdfc5a87e629ae6fab1","computer","2","567.59999999404","1","image10.jpg","images"
"6077afdfc5a87e629ae6fab1","computer","3","1001.19999998808","1","image4.jpg","images"
"6077afdfc5a87e629ae6fab1","computer","4","861.09999999404","2","image47.jpg","images"
"6077afdfc5a87e629ae6fab1","computer","5","1466.69999998808","6","image15.jpg","images"
"6077afdfc5a87e629ae6fab1","computer","6","1625.10000002384","7","image52.jpg","images"
"6077afdfc5a87e629ae6fab1","computer","7","818.90000000596","8","image17.jpg","images"
"6077afdfc5a87e629ae6fab1","computer","8","727.299999982119","8","image39.jpg","images"
"6077afdfc5a87e629ae6fab1","computer","9","854.300000011921","8","image2.jpg","images"
"6077afdfc5a87e629ae6fab1","computer","10","719.399999976158","1","image34.jpg","images"
"6077afdfc5a87e629ae6fab1","computer","11","935.40000000596","9","image20.jpg","images"
"6077afdfc5a87e629ae6fab1","computer","12","775.5","1","image35.jpg","images"
"6077afdfc5a87e629ae6fab1","computer","13","1140","3","image12.jpg","images"
"6077afdfc5a87e629ae6fab1","computer","14","456.399999976158","1","image33.jpg","images"
"6077afdfc5a87e629ae6fab1","computer","15","759.199999988079","1","image36.jpg","images"
"6077afdfc5a87e629ae6fab1","computer","16","2121.5","4","image1.jpg","images"
"6077afdfc5a87e629ae6fab1","computer","17","822.800000011921","9","image5.jpg","images"
"6077afdfc5a87e629ae6fab1","computer","18","1065.89999997616","5","image14.jpg","images"
"5d96203d74f4a000159a8c58","computer","1","5914.5","3","image39.jpg","images"
"5d96203d74f4a000159a8c58","computer","2","1002.89999997616","1","image35.jpg","images"
"5d96203d74f4a000159a8c58","computer","3","1797.69999992847","6","image52.jpg","images"
"5d96203d74f4a000159a8c58","computer","4","1127.79999995232","4","image5.jpg","images"
"5d96203d74f4a000159a8c58","computer","5","781.100000023842","4","image3.jpg","images"
"5d96203d74f4a000159a8c58","computer","6","950.700000047684","5","image14.jpg","images"
"5d96203d74f4a000159a8c58","computer","7","922.700000047684","2","image10.jpg","images"
"5d96203d74f4a000159a8c58","computer","8","1060.30000007153","4","image17.jpg","images"
"5d96203d74f4a000159a8c58","computer","9","600.200000047684","1","image1.jpg","images"
"5d96203d74f4a000159a8c58","computer","10","1023.70000004768","5","image20.jpg","images"
"5d96203d74f4a000159a8c58","computer","11","874","2","image4.jpg","images"
"5d96203d74f4a000159a8c58","computer","12","2445.19999992847","2","image2.jpg","images"
"5d96203d74f4a000159a8c58","computer","13","672.200000047684","1","image47.jpg","images"
"5d96203d74f4a000159a8c58","computer","14","1847.69999992847","3","image12.jpg","images"
"5d96203d74f4a000159a8c58","computer","15","965.800000071526","2","image36.jpg","images"
"5d96203d74f4a000159a8c58","computer","16","646","1","image33.jpg","images"
"5d96203d74f4a000159a8c58","computer","17","1326","3","image15.jpg","images"
"5d96203d74f4a000159a8c58","computer","18","995.399999976158","1","image34.jpg","images"
"5ee04a3f7dfcae39390e6553","computer","1","4271.39999999851","6","image47.jpg","images"
"5ee04a3f7dfcae39390e6553","computer","2","1941.70000000298","8","image39.jpg","images"
"5ee04a3f7dfcae39390e6553","computer","3","1933.30000000447","7","image3.jpg","images"
"5ee04a3f7dfcae39390e6553","computer","4","1517.89999999851","5","image4.jpg","images"
"5ee04a3f7dfcae39390e6553","computer","5","1719.20000000298","8","image33.jpg","images"
"5ee04a3f7dfcae39390e6553","computer","6","2459.59999999404","7","image20.jpg","images"
"5ee04a3f7dfcae39390e6553","computer","7","2456.10000000149","6","image12.jpg","images"
"5ee04a3f7dfcae39390e6553","computer","8","1562.10000000149","8","image34.jpg","images"
"5ee04a3f7dfcae39390e6553","computer","9","3058.20000000298","7","image17.jpg","images"
"5ee04a3f7dfcae39390e6553","computer","10","1599.60000000149","6","image1.jpg","images"
"5ee04a3f7dfcae39390e6553","computer","11","1493.10000000149","9","image35.jpg","images"
"5ee04a3f7dfcae39390e6553","computer","12","1489.20000000298","6","image36.jpg","images"
"5ee04a3f7dfcae39390e6553","computer","13","1133.10000000149","9","image5.jpg","images"
"5ee04a3f7dfcae39390e6553","computer","14","792.59999999404","9","image2.jpg","images"
"5ee04a3f7dfcae39390e6553","computer","15","1806.30000000447","9","image14.jpg","images"
"5ee04a3f7dfcae39390e6553","computer","16","1211","6","image10.jpg","images"
"5ee04a3f7dfcae39390e6553","computer","17","1031.39999999851","7","image15.jpg","images"
"5ee04a3f7dfcae39390e6553","computer","18","1125","8","image52.jpg","images"
"5f90869547ff2e159dd64902","computer","1","5028.79999999702","7","image17.jpg","images"
"5f90869547ff2e159dd64902","computer","2","1409.90000000224","7","image3.jpg","images"
"5f90869547ff2e159dd64902","computer","3","2184.80000000075","7","image52.jpg","images"
"5f90869547ff2e159dd64902","computer","4","729.39999999851","7","image20.jpg","images"
"5f90869547ff2e159dd64902","computer","5","1023.79999999702","3","image15.jpg","images"
"5f90869547ff2e159dd64902","computer","6","1703.80000000075","3","image1.jpg","images"
"5f90869547ff2e159dd64902","computer","7","588.400000002235","3","image34.jpg","images"
"5f90869547ff2e159dd64902","computer","8","1179.80000000075","7","image5.jpg","images"
"5f90869547ff2e159dd64902","computer","9","1491.60000000149","4","image47.jpg","images"
"5f90869547ff2e159dd64902","computer","10","3520.89999999851","2","image4.jpg","images"
"5f90869547ff2e159dd64902","computer","11","2416.09999999776","6","image39.jpg","images"
"5f90869547ff2e159dd64902","computer","12","954.39999999851","8","image12.jpg","images"
"5f90869547ff2e159dd64902","computer","13","915.699999999255","2","image36.jpg","images"
"5f90869547ff2e159dd64902","computer","14","1576.5","5","image2.jpg","images"
"5f90869547ff2e159dd64902","computer","15","721.400000002235","7","image14.jpg","images"
"5f90869547ff2e159dd64902","computer","16","620.599999997765","3","image33.jpg","images"
"5f90869547ff2e159dd64902","computer","17","728","3","image10.jpg","images"
"5f90869547ff2e159dd64902","computer","18","440.800000000745","3","image35.jpg","images"
"5ca0326cc00f5a0001f99339","computer","1","1765","6","image4.jpg","images"
"5ca0326cc00f5a0001f99339","computer","2","2025","8","image20.jpg","images"
"5ca0326cc00f5a0001f99339","computer","3","1040","5","image10.jpg","images"
"5ca0326cc00f5a0001f99339","computer","4","1330","4","image47.jpg","images"
"5ca0326cc00f5a0001f99339","computer","5","1077","6","image2.jpg","images"
"5ca0326cc00f5a0001f99339","computer","6","855","2","image12.jpg","images"
"5ca0326cc00f5a0001f99339","computer","7","945","8","image39.jpg","images"
"5ca0326cc00f5a0001f99339","computer","8","945","5","image33.jpg","images"
"5ca0326cc00f5a0001f99339","computer","9","1100","1","image15.jpg","images"
"5ca0326cc00f5a0001f99339","computer","10","1068","5","image1.jpg","images"
"5ca0326cc00f5a0001f99339","computer","11","964","7","image36.jpg","images"
"5ca0326cc00f5a0001f99339","computer","12","554","5","image5.jpg","images"
"5ca0326cc00f5a0001f99339","computer","13","872","6","image14.jpg","images"
"5ca0326cc00f5a0001f99339","computer","14","773","1","image35.jpg","images"
"5ca0326cc00f5a0001f99339","computer","15","730","7","image3.jpg","images"
"5ca0326cc00f5a0001f99339","computer","16","1544","8","image52.jpg","images"
"5ca0326cc00f5a0001f99339","computer","17","727","2","image34.jpg","images"
"5ca0326cc00f5a0001f99339","computer","18","455","9","image17.jpg","images"
"60576ce95933970d7f0b8fc2","computer","1","1695.39999985695","9","image20.jpg","images"
"60576ce95933970d7f0b8fc2","computer","2","1007.40000009537","1","image34.jpg","images"
"60576ce95933970d7f0b8fc2","computer","3","541.899999856949","1","image47.jpg","images"
"60576ce95933970d7f0b8fc2","computer","4","1923.60000014305","5","image36.jpg","images"
"60576ce95933970d7f0b8fc2","computer","5","835.200000047684","9","image5.jpg","images"
"60576ce95933970d7f0b8fc2","computer","6","1127.79999995232","6","image4.jpg","images"
"60576ce95933970d7f0b8fc2","computer","7","894.600000143051","3","image35.jpg","images"
"60576ce95933970d7f0b8fc2","computer","8","1122","3","image1.jpg","images"
"60576ce95933970d7f0b8fc2","computer","9","1283.09999990463","9","image2.jpg","images"
"60576ce95933970d7f0b8fc2","computer","10","472.700000047684","9","image52.jpg","images"
"60576ce95933970d7f0b8fc2","computer","11","368.399999856949","9","image14.jpg","images"
"60576ce95933970d7f0b8fc2","computer","12","475.099999904633","9","image12.jpg","images"
"60576ce95933970d7f0b8fc2","computer","13","770.200000047684","1","image33.jpg","images"
"60576ce95933970d7f0b8fc2","computer","14","946.800000190735","6","image10.jpg","images"
"60576ce95933970d7f0b8fc2","computer","15","772.799999952316","9","image17.jpg","images"
"60576ce95933970d7f0b8fc2","computer","16","652.200000047684","1","image15.jpg","images"
"60576ce95933970d7f0b8fc2","computer","17","386.900000095367","1","image39.jpg","images"
"60576ce95933970d7f0b8fc2","computer","18","648.200000047684","9","image3.jpg","images"
"5f19bba876821d0295c3e036","computer","1","1441","8","image3.jpg","images"
"5f19bba876821d0295c3e036","computer","2","1021","2","image35.jpg","images"
"5f19bba876821d0295c3e036","computer","3","535","1","image34.jpg","images"
"5f19bba876821d0295c3e036","computer","4","1214","9","image2.jpg","images"
"5f19bba876821d0295c3e036","computer","5","1681","5","image1.jpg","images"
"5f19bba876821d0295c3e036","computer","6","1014","3","image47.jpg","images"
"5f19bba876821d0295c3e036","computer","7","616","9","image14.jpg","images"
"5f19bba876821d0295c3e036","computer","8","709","8","image17.jpg","images"
"5f19bba876821d0295c3e036","computer","9","1302","8","image5.jpg","images"
"5f19bba876821d0295c3e036","computer","10","1741","9","image52.jpg","images"
"5f19bba876821d0295c3e036","computer","11","1326","2","image15.jpg","images"
"5f19bba876821d0295c3e036","computer","12","831","3","image10.jpg","images"
"5f19bba876821d0295c3e036","computer","13","3553","5","image12.jpg","images"
"5f19bba876821d0295c3e036","computer","14","2046","8","image20.jpg","images"
"5f19bba876821d0295c3e036","computer","15","4314","7","image36.jpg","images"
"5f19bba876821d0295c3e036","computer","16","714","9","image39.jpg","images"
"5f19bba876821d0295c3e036","computer","17","1131","5","image4.jpg","images"
"5f19bba876821d0295c3e036","computer","18","1418","3","image33.jpg","images"
"5ddb5ed4a64380abb2907440","computer","1","1026","1","image15.jpg","images"
"5ddb5ed4a64380abb2907440","computer","2","992","8","image5.jpg","images"
"5ddb5ed4a64380abb2907440","computer","3","1168","6","image39.jpg","images"
"5ddb5ed4a64380abb2907440","computer","4","945","7","image17.jpg","images"
"5ddb5ed4a64380abb2907440","computer","5","979","5","image35.jpg","images"
"5ddb5ed4a64380abb2907440","computer","6","849","1","image4.jpg","images"
"5ddb5ed4a64380abb2907440","computer","7","1422","7","image20.jpg","images"
"5ddb5ed4a64380abb2907440","computer","8","916","2","image36.jpg","images"
"5ddb5ed4a64380abb2907440","computer","9","1023","7","image3.jpg","images"
"5ddb5ed4a64380abb2907440","computer","10","926","2","image47.jpg","images"
"5ddb5ed4a64380abb2907440","computer","11","944","8","image14.jpg","images"
"5ddb5ed4a64380abb2907440","computer","12","1066","2","image12.jpg","images"
"5ddb5ed4a64380abb2907440","computer","13","926","3","image33.jpg","images"
"5ddb5ed4a64380abb2907440","computer","14","760","1","image34.jpg","images"
"5ddb5ed4a64380abb2907440","computer","15","721","2","image1.jpg","images"
"5ddb5ed4a64380abb2907440","computer","16","706","3","image10.jpg","images"
"5ddb5ed4a64380abb2907440","computer","17","815","7","image52.jpg","images"
"5ddb5ed4a64380abb2907440","computer","18","755","8","image2.jpg","images"
"5f5f26703e0a0500093457fc","computer","1","976.899999999907","3","image36.jpg","images"
"5f5f26703e0a0500093457fc","computer","2","904.200000000186","2","image35.jpg","images"
"5f5f26703e0a0500093457fc","computer","3","677.300000000047","2","image47.jpg","images"
"5f5f26703e0a0500093457fc","computer","4","798.90000000014","5","image15.jpg","images"
"5f5f26703e0a0500093457fc","computer","5","754.300000000047","2","image33.jpg","images"
"5f5f26703e0a0500093457fc","computer","6","712.5","3","image10.jpg","images"
"5f5f26703e0a0500093457fc","computer","7","736.899999999907","3","image2.jpg","images"
"5f5f26703e0a0500093457fc","computer","8","587.90000000014","3","image14.jpg","images"
"5f5f26703e0a0500093457fc","computer","9","715.100000000093","2","image5.jpg","images"
"5f5f26703e0a0500093457fc","computer","10","819.800000000047","2","image1.jpg","images"
"5f5f26703e0a0500093457fc","computer","11","685.5","3","image20.jpg","images"
"5f5f26703e0a0500093457fc","computer","12","677","3","image52.jpg","images"
"5f5f26703e0a0500093457fc","computer","13","1128","7","image12.jpg","images"
"5f5f26703e0a0500093457fc","computer","14","5227.09999999986","3","image3.jpg","images"
"5f5f26703e0a0500093457fc","computer","15","1611.89999999991","7","image39.jpg","images"
"5f5f26703e0a0500093457fc","computer","16","986.5","1","image34.jpg","images"
"5f5f26703e0a0500093457fc","computer","17","1067.80000000005","3","image17.jpg","images"
"5f5f26703e0a0500093457fc","computer","18","877.200000000186","9","image4.jpg","images"
"5f3b2b15f5d396257a4cd215","computer","1","1380.79999998212","6","image52.jpg","images"
"5f3b2b15f5d396257a4cd215","computer","2","1249","2","image47.jpg","images"
"5f3b2b15f5d396257a4cd215","computer","3","757.200000017881","9","image20.jpg","images"
"5f3b2b15f5d396257a4cd215","computer","4","2107.90000000596","3","image4.jpg","images"
"5f3b2b15f5d396257a4cd215","computer","5","698.199999988079","3","image33.jpg","images"
"5f3b2b15f5d396257a4cd215","computer","6","773.5","7","image39.jpg","images"
"5f3b2b15f5d396257a4cd215","computer","7","3700.79999998212","1","image15.jpg","images"
"5f3b2b15f5d396257a4cd215","computer","8","3264.40000000596","7","image36.jpg","images"
"5f3b2b15f5d396257a4cd215","computer","9","2872","5","image35.jpg","images"
"5f3b2b15f5d396257a4cd215","computer","10","1614.09999999404","7","image5.jpg","images"
"5f3b2b15f5d396257a4cd215","computer","11","4102.69999998808","7","image10.jpg","images"
"5f3b2b15f5d396257a4cd215","computer","12","2531.60000002384","6","image1.jpg","images"
"5f3b2b15f5d396257a4cd215","computer","13","736.700000017881","9","image2.jpg","images"
"5f3b2b15f5d396257a4cd215","computer","14","729.90000000596","1","image34.jpg","images"
"5f3b2b15f5d396257a4cd215","computer","15","809.90000000596","7","image17.jpg","images"
"5f3b2b15f5d396257a4cd215","computer","16","419.899999976158","7","image14.jpg","images"
"5f3b2b15f5d396257a4cd215","computer","17","457.199999988079","6","image3.jpg","images"
"5f3b2b15f5d396257a4cd215","computer","18","1018.19999998808","6","image12.jpg","images"
"5e574f393e26c90f2b47b96c","computer","1","2222.40000000596","3","image52.jpg","images"
"5e574f393e26c90f2b47b96c","computer","2","1220","8","image3.jpg","images"
"5e574f393e26c90f2b47b96c","computer","3","978.700000017881","8","image12.jpg","images"
"5e574f393e26c90f2b47b96c","computer","4","608.699999988079","2","image15.jpg","images"
"5e574f393e26c90f2b47b96c","computer","5","834.299999982119","3","image2.jpg","images"
"5e574f393e26c90f2b47b96c","computer","6","573.300000011921","8","image17.jpg","images"
"5e574f393e26c90f2b47b96c","computer","7","526.199999988079","9","image14.jpg","images"
"5e574f393e26c90f2b47b96c","computer","8","916.699999988079","5","image20.jpg","images"
"5e574f393e26c90f2b47b96c","computer","9","531.799999982119","1","image33.jpg","images"
"5e574f393e26c90f2b47b96c","computer","10","2000.69999998808","2","image35.jpg","images"
"5e574f393e26c90f2b47b96c","computer","11","471","1","image1.jpg","images"
"5e574f393e26c90f2b47b96c","computer","12","1240.5","3","image4.jpg","images"
"5e574f393e26c90f2b47b96c","computer","13","485.199999988079","1","image47.jpg","images"
"5e574f393e26c90f2b47b96c","computer","14","704","1","image34.jpg","images"
"5e574f393e26c90f2b47b96c","computer","15","774.199999988079","1","image10.jpg","images"
"5e574f393e26c90f2b47b96c","computer","16","897.5","7","image5.jpg","images"
"5e574f393e26c90f2b47b96c","computer","17","808.90000000596","3","image39.jpg","images"
"5e574f393e26c90f2b47b96c","computer","18","1406.40000000596","1","image36.jpg","images"
"5f503a5aaf6c8c1a78242005","computer","1","2311.39999997616","1","image1.jpg","images"
"5f503a5aaf6c8c1a78242005","computer","2","751.700000047684","1","image4.jpg","images"
"5f503a5aaf6c8c1a78242005","computer","3","2305.29999995232","3","image12.jpg","images"
"5f503a5aaf6c8c1a78242005","computer","4","743.700000047684","1","image15.jpg","images"
"5f503a5aaf6c8c1a78242005","computer","5","945.799999952316","9","image52.jpg","images"
"5f503a5aaf6c8c1a78242005","computer","6","654.700000047684","1","image35.jpg","images"
"5f503a5aaf6c8c1a78242005","computer","7","733.099999904633","8","image39.jpg","images"
"5f503a5aaf6c8c1a78242005","computer","8","1297.89999997616","2","image33.jpg","images"
"5f503a5aaf6c8c1a78242005","computer","9","623","1","image34.jpg","images"
"5f503a5aaf6c8c1a78242005","computer","10","1194.89999997616","2","image10.jpg","images"
"5f503a5aaf6c8c1a78242005","computer","11","896.199999928474","9","image5.jpg","images"
"5f503a5aaf6c8c1a78242005","computer","12","902.100000023842","7","image3.jpg","images"
"5f503a5aaf6c8c1a78242005","computer","13","690.699999928474","9","image20.jpg","images"
"5f503a5aaf6c8c1a78242005","computer","14","4597.20000004768","8","image17.jpg","images"
"5f503a5aaf6c8c1a78242005","computer","15","787","1","image47.jpg","images"
"5f503a5aaf6c8c1a78242005","computer","16","637.899999976158","9","image14.jpg","images"
"5f503a5aaf6c8c1a78242005","computer","17","1970.89999997616","2","image36.jpg","images"
"5f503a5aaf6c8c1a78242005","computer","18","808.300000071526","9","image2.jpg","images"
"5f503a5aaf6c8c1a78242005","computer","1","2961","6","Classical_19.mp3","music"
"5f503a5aaf6c8c1a78242005","computer","2","991.4000000953674","9","Classical_7.mp3","music"
"5f503a5aaf6c8c1a78242005","computer","3","930.5","8","Classical_8.mp3","music"
"5f503a5aaf6c8c1a78242005","computer","4","992.7000000476837","1","Cut_jazz_1.mp3","music"
"5f503a5aaf6c8c1a78242005","computer","5","900.8999999761581","9","Classical_17.mp3","music"
"5f503a5aaf6c8c1a78242005","computer","6","669.3999999761581","9","Classical_1.mp3","music"
"5f503a5aaf6c8c1a78242005","computer","7","2048.399999976158","3","Cut_jazz_16.mp3","music"
"5f503a5aaf6c8c1a78242005","computer","8","904.9000000953674","2","Classical_2.mp3","music"
"5f503a5aaf6c8c1a78242005","computer","9","804.3999999761581","3","Cut_jazz_14.mp3","music"
"5f503a5aaf6c8c1a78242005","computer","10","961.5","4","Classical_15.mp3","music"
"5f503a5aaf6c8c1a78242005","computer","11","509.5","1","Cut_jazz_5.mp3","music"
"5f503a5aaf6c8c1a78242005","computer","12","491.7000000476837","2","Cut_jazz_7.mp3","music"
"5f503a5aaf6c8c1a78242005","computer","13","467.7000000476837","2","Classical_18.mp3","music"
"5f503a5aaf6c8c1a78242005","computer","14","826.7000000476837","2","Classical_6.mp3","music"
"5f503a5aaf6c8c1a78242005","computer","15","880.6999999284744","1","Classical_4.mp3","music"
"5f503a5aaf6c8c1a78242005","computer","16","1041.1000000238419","2","foil.mp3","music"
"5f503a5aaf6c8c1a78242005","computer","17","767.1000000238419","3","Cut_jazz_19.mp3","music"
"5f503a5aaf6c8c1a78242005","computer","18","905.6999999284744","1","Cut_jazz_10.mp3","music"
"5f503a5aaf6c8c1a78242005","computer","19","2013.6000000238419","5","Cut_jazz_2.mp3","music"
"5e574f393e26c90f2b47b96c","computer","1","952.5","6","Cut_jazz_7.mp3","music"
"5e574f393e26c90f2b47b96c","computer","2","934.0999999940395","4","Cut_jazz_5.mp3","music"
"5e574f393e26c90f2b47b96c","computer","3","499.40000000596046","9","Classical_1.mp3","music"
"5e574f393e26c90f2b47b96c","computer","4","1069.699999988079","3","Cut_jazz_1.mp3","music"
"5e574f393e26c90f2b47b96c","computer","5","1934.199999988079","2","foil.mp3","music"
"5e574f393e26c90f2b47b96c","computer","6","1071.300000011921","6","Cut_jazz_2.mp3","music"
"5e574f393e26c90f2b47b96c","computer","7","931.6999999880791","1","Cut_jazz_16.mp3","music"
"5e574f393e26c90f2b47b96c","computer","8","497.7000000178814","8","Classical_8.mp3","music"
"5e574f393e26c90f2b47b96c","computer","9","2085.699999988079","6","Classical_19.mp3","music"
"5e574f393e26c90f2b47b96c","computer","10","2151.5999999940395","5","Classical_18.mp3","music"
"5e574f393e26c90f2b47b96c","computer","11","754.7000000178814","6","Classical_17.mp3","music"
"5e574f393e26c90f2b47b96c","computer","12","518.9000000059605","8","Cut_jazz_14.mp3","music"
"5e574f393e26c90f2b47b96c","computer","13","807.5999999940395","8","Cut_jazz_19.mp3","music"
"5e574f393e26c90f2b47b96c","computer","14","575.5","5","Classical_6.mp3","music"
"5e574f393e26c90f2b47b96c","computer","15","1447.9000000059605","5","Classical_15.mp3","music"
"5e574f393e26c90f2b47b96c","computer","16","1064.9000000059605","3","Classical_4.mp3","music"
"5e574f393e26c90f2b47b96c","computer","17","521.1999999880791","4","Classical_7.mp3","music"
"5e574f393e26c90f2b47b96c","computer","18","1589.7999999821186","5","Classical_2.mp3","music"
"5e574f393e26c90f2b47b96c","computer","19","533.9000000059605","2","Cut_jazz_10.mp3","music"
"5f90869547ff2e159dd64902","computer","1","1090","6","Classical_17.mp3","music"
"5f90869547ff2e159dd64902","computer","2","862.6000000014901","6","Classical_8.mp3","music"
"5f90869547ff2e159dd64902","computer","3","661.5","6","Cut_jazz_7.mp3","music"
"5f90869547ff2e159dd64902","computer","4","869.8000000007451","5","Classical_15.mp3","music"
"5f90869547ff2e159dd64902","computer","5","581.6000000014901","8","Cut_jazz_2.mp3","music"
"5f90869547ff2e159dd64902","computer","6","3085.7000000029802","5","Cut_jazz_16.mp3","music"
"5f90869547ff2e159dd64902","computer","7","1041.7999999970198","6","Classical_18.mp3","music"
"5f90869547ff2e159dd64902","computer","8","1765.300000000745","4","Cut_jazz_10.mp3","music"
"5f90869547ff2e159dd64902","computer","9","1059.8999999985099","6","Classical_7.mp3","music"
"5f90869547ff2e159dd64902","computer","10","1093.2000000029802","5","Classical_6.mp3","music"
"5f90869547ff2e159dd64902","computer","11","831.7000000029802","7","Classical_19.mp3","music"
"5f90869547ff2e159dd64902","computer","12","807.0999999977648","6","Cut_jazz_5.mp3","music"
"5f90869547ff2e159dd64902","computer","13","486.4000000022352","6","Cut_jazz_19.mp3","music"
"5f90869547ff2e159dd64902","computer","14","2067.400000002235","2","foil.mp3","music"
"5f90869547ff2e159dd64902","computer","15","5928.5","6","Classical_2.mp3","music"
"5f90869547ff2e159dd64902","computer","16","535.5","6","Cut_jazz_1.mp3","music"
"5f90869547ff2e159dd64902","computer","17","505","8","Cut_jazz_14.mp3","music"
"5f90869547ff2e159dd64902","computer","18","879.7999999970198","4","Classical_4.mp3","music"
"5f90869547ff2e159dd64902","computer","19","436.80000000074506","8","Classical_1.mp3","music"
"5fef6fc8b890b1dd5a155e6a","computer","1","1490.7999999998137","9","Classical_1.mp3","music"
"5fef6fc8b890b1dd5a155e6a","computer","2","1640.800000000745","9","Classical_19.mp3","music"
"5fef6fc8b890b1dd5a155e6a","computer","3","1314","8","Classical_4.mp3","music"
"5fef6fc8b890b1dd5a155e6a","computer","4","5044.5999999996275","4","Cut_jazz_5.mp3","music"
"5fef6fc8b890b1dd5a155e6a","computer","5","1606.0999999996275","9","Classical_15.mp3","music"
"5fef6fc8b890b1dd5a155e6a","computer","6","2261.800000000745","8","Cut_jazz_14.mp3","music"
"5fef6fc8b890b1dd5a155e6a","computer","7","1845","2","foil.mp3","music"
"5fef6fc8b890b1dd5a155e6a","computer","8","1391.0999999996275","9","Classical_6.mp3","music"
"5fef6fc8b890b1dd5a155e6a","computer","9","1678.4000000003725","9","Cut_jazz_7.mp3","music"
"5fef6fc8b890b1dd5a155e6a","computer","10","1592.2999999998137","7","Classical_17.mp3","music"
"5fef6fc8b890b1dd5a155e6a","computer","11","3029.2999999998137","9","Classical_18.mp3","music"
"5fef6fc8b890b1dd5a155e6a","computer","12","1793.0999999996275","2","Cut_jazz_16.mp3","music"
"5fef6fc8b890b1dd5a155e6a","computer","13","1943.0999999996275","7","Classical_2.mp3","music"
"5fef6fc8b890b1dd5a155e6a","computer","14","3189","3","Cut_jazz_2.mp3","music"
"5fef6fc8b890b1dd5a155e6a","computer","15","2494.199999999255","2","Cut_jazz_1.mp3","music"
"5fef6fc8b890b1dd5a155e6a","computer","16","2151.699999999255","2","Cut_jazz_19.mp3","music"
"5fef6fc8b890b1dd5a155e6a","computer","17","1660.7999999998137","9","Classical_8.mp3","music"
"5fef6fc8b890b1dd5a155e6a","computer","18","2825.7000000001863","2","Cut_jazz_10.mp3","music"
"5fef6fc8b890b1dd5a155e6a","computer","19","1957.699999999255","7","Classical_7.mp3","music"
"6077afdfc5a87e629ae6fab1","computer","1","1732.1000000238419","1","Classical_2.mp3","music"
"6077afdfc5a87e629ae6fab1","computer","2","1247.5999999940395","8","Classical_19.mp3","music"
"6077afdfc5a87e629ae6fab1","computer","3","988.5","3","Cut_jazz_10.mp3","music"
"6077afdfc5a87e629ae6fab1","computer","4","1202","2","Classical_15.mp3","music"
"6077afdfc5a87e629ae6fab1","computer","5","1555.5","7","Cut_jazz_14.mp3","music"
"6077afdfc5a87e629ae6fab1","computer","6","806.1999999880791","7","Classical_18.mp3","music"
"6077afdfc5a87e629ae6fab1","computer","7","761.5","3","Classical_17.mp3","music"
"6077afdfc5a87e629ae6fab1","computer","8","2131.4000000059605","2","Cut_jazz_5.mp3","music"
"6077afdfc5a87e629ae6fab1","computer","9","1735.7000000178814","4","Classical_4.mp3","music"
"6077afdfc5a87e629ae6fab1","computer","10","3451.399999976158","6","Cut_jazz_2.mp3","music"
"6077afdfc5a87e629ae6fab1","computer","11","1716","2","Classical_6.mp3","music"
"6077afdfc5a87e629ae6fab1","computer","12","2899.9000000059605","8","Classical_7.mp3","music"
"6077afdfc5a87e629ae6fab1","computer","13","2888.4000000059605","5","Cut_jazz_19.mp3","music"
"6077afdfc5a87e629ae6fab1","computer","14","782.5999999940395","9","Classical_8.mp3","music"
"6077afdfc5a87e629ae6fab1","computer","15","1053.699999988079","2","foil.mp3","music"
"6077afdfc5a87e629ae6fab1","computer","16","2190.5","7","Cut_jazz_1.mp3","music"
"6077afdfc5a87e629ae6fab1","computer","17","624.2999999821186","9","Classical_1.mp3","music"
"6077afdfc5a87e629ae6fab1","computer","18","1940.5999999940395","5","Cut_jazz_16.mp3","music"
"6077afdfc5a87e629ae6fab1","computer","19","1115.5999999940395","8","Cut_jazz_7.mp3","music"
"5d96203d74f4a000159a8c58","computer","1","2584.5","3","Classical_17.mp3","music"
"5d96203d74f4a000159a8c58","computer","2","1053.8000000715256","2","foil.mp3","music"
"5d96203d74f4a000159a8c58","computer","3","2333.0999999046326","3","Cut_jazz_1.mp3","music"
"5d96203d74f4a000159a8c58","computer","4","769.1999999284744","4","Cut_jazz_16.mp3","music"
"5d96203d74f4a000159a8c58","computer","5","837.5","3","Cut_jazz_7.mp3","music"
"5d96203d74f4a000159a8c58","computer","6","906","4","Cut_jazz_19.mp3","music"
"5d96203d74f4a000159a8c58","computer","7","461.1999999284744","4","Classical_6.mp3","music"
"5d96203d74f4a000159a8c58","computer","8","1757.8999999761581","4","Cut_jazz_10.mp3","music"
"5d96203d74f4a000159a8c58","computer","9","573.3999999761581","4","Classical_8.mp3","music"
"5d96203d74f4a000159a8c58","computer","10","492.1999999284744","4","Classical_2.mp3","music"
"5d96203d74f4a000159a8c58","computer","11","725.6999999284744","4","Classical_19.mp3","music"
"5d96203d74f4a000159a8c58","computer","12","1361.3999999761581","4","Cut_jazz_2.mp3","music"
"5d96203d74f4a000159a8c58","computer","13","491.1999999284744","4","Classical_4.mp3","music"
"5d96203d74f4a000159a8c58","computer","14","466.3000000715256","4","Classical_18.mp3","music"
"5d96203d74f4a000159a8c58","computer","15","617","4","Cut_jazz_14.mp3","music"
"5d96203d74f4a000159a8c58","computer","16","1242.7000000476837","4","Classical_7.mp3","music"
"5d96203d74f4a000159a8c58","computer","17","994","4","Classical_1.mp3","music"
"5d96203d74f4a000159a8c58","computer","18","1198.1999999284744","3","Cut_jazz_5.mp3","music"
"5d96203d74f4a000159a8c58","computer","19","1075.5","4","Classical_15.mp3","music"
"558acd52fdf99b65685f03d9","computer","1","4335.899999991059","5","Cut_jazz_14.mp3","music"
"558acd52fdf99b65685f03d9","computer","2","1744.5","2","Classical_7.mp3","music"
"558acd52fdf99b65685f03d9","computer","3","1415.5999999940395","1","Cut_jazz_1.mp3","music"
"558acd52fdf99b65685f03d9","computer","4","1324.7999999970198","1","Cut_jazz_5.mp3","music"
"558acd52fdf99b65685f03d9","computer","5","1395.699999988079","3","Cut_jazz_19.mp3","music"
"558acd52fdf99b65685f03d9","computer","6","1909.2000000029802","1","Classical_4.mp3","music"
"558acd52fdf99b65685f03d9","computer","7","1151.5999999940395","2","foil.mp3","music"
"558acd52fdf99b65685f03d9","computer","8","1678.7999999970198","4","Classical_6.mp3","music"
"558acd52fdf99b65685f03d9","computer","9","1605.0999999940395","3","Cut_jazz_7.mp3","music"
"558acd52fdf99b65685f03d9","computer","10","1786.6000000089407","2","Cut_jazz_10.mp3","music"
"558acd52fdf99b65685f03d9","computer","11","1446.2000000029802","5","Classical_1.mp3","music"
"558acd52fdf99b65685f03d9","computer","12","1587.7999999970198","2","Classical_2.mp3","music"
"558acd52fdf99b65685f03d9","computer","13","1344.5999999940395","2","Classical_19.mp3","music"
"558acd52fdf99b65685f03d9","computer","14","1187.7000000029802","3","Cut_jazz_2.mp3","music"
"558acd52fdf99b65685f03d9","computer","15","1867.800000011921","3","Classical_15.mp3","music"
"558acd52fdf99b65685f03d9","computer","16","1617","2","Classical_18.mp3","music"
"558acd52fdf99b65685f03d9","computer","17","1641","2","Cut_jazz_16.mp3","music"
"558acd52fdf99b65685f03d9","computer","18","1415.800000011921","3","Classical_8.mp3","music"
"558acd52fdf99b65685f03d9","computer","19","1098.4000000059605","4","Classical_17.mp3","music"
"5ee04a3f7dfcae39390e6553","computer","1","1577.5999999940395","7","Cut_jazz_16.mp3","music"
"5ee04a3f7dfcae39390e6553","computer","2","1240","8","Classical_1.mp3","music"
"5ee04a3f7dfcae39390e6553","computer","3","803.3999999985099","8","Classical_2.mp3","music"
"5ee04a3f7dfcae39390e6553","computer","4","1308.3999999985099","7","Classical_7.mp3","music"
"5ee04a3f7dfcae39390e6553","computer","5","1558.3999999985099","7","Classical_4.mp3","music"
"5ee04a3f7dfcae39390e6553","computer","6","1215.3000000044703","7","Classical_6.mp3","music"
"5ee04a3f7dfcae39390e6553","computer","7","2902.6999999955297","7","Cut_jazz_10.mp3","music"
"5ee04a3f7dfcae39390e6553","computer","8","2208.6999999955297","7","Classical_15.mp3","music"
"5ee04a3f7dfcae39390e6553","computer","9","2356.1999999955297","6","Classical_17.mp3","music"
"5ee04a3f7dfcae39390e6553","computer","10","1310.2999999970198","8","Cut_jazz_5.mp3","music"
"5ee04a3f7dfcae39390e6553","computer","11","1736.2999999970198","7","Cut_jazz_14.mp3","music"
"5ee04a3f7dfcae39390e6553","computer","12","1790.6000000014901","7","Cut_jazz_7.mp3","music"
"5ee04a3f7dfcae39390e6553","computer","13","1490.9000000059605","7","Classical_19.mp3","music"
"5ee04a3f7dfcae39390e6553","computer","14","1831","7","Cut_jazz_2.mp3","music"
"5ee04a3f7dfcae39390e6553","computer","15","1379.7999999970198","8","Classical_8.mp3","music"
"5ee04a3f7dfcae39390e6553","computer","16","1303.1999999955297","2","foil.mp3","music"
"5ee04a3f7dfcae39390e6553","computer","17","2221.0999999940395","6","Cut_jazz_1.mp3","music"
"5ee04a3f7dfcae39390e6553","computer","18","1309.5","8","Cut_jazz_19.mp3","music"
"5ee04a3f7dfcae39390e6553","computer","19","1958.3999999985099","9","Classical_18.mp3","music"
"5f5f26703e0a0500093457fc","computer","1","1057.3000000000466","5","Cut_jazz_19.mp3","music"
"5f5f26703e0a0500093457fc","computer","2","742.2000000001863","4","Cut_jazz_16.mp3","music"
"5f5f26703e0a0500093457fc","computer","3","703.4000000001397","4","Cut_jazz_2.mp3","music"
"5f5f26703e0a0500093457fc","computer","4","4775.199999999953","2","foil.mp3","music"
"5f5f26703e0a0500093457fc","computer","5","2454","2","Classical_4.mp3","music"
"5f5f26703e0a0500093457fc","computer","6","1018.6000000000931","2","Cut_jazz_1.mp3","music"
"5f5f26703e0a0500093457fc","computer","7","1008.6000000000931","2","Cut_jazz_7.mp3","music"
"5f5f26703e0a0500093457fc","computer","8","1410.9000000001397","2","Classical_17.mp3","music"
"5f5f26703e0a0500093457fc","computer","9","1312.3999999999069","3","Classical_1.mp3","music"
"5f5f26703e0a0500093457fc","computer","10","2033.1000000000931","3","Classical_2.mp3","music"
"5f5f26703e0a0500093457fc","computer","11","823.9000000001397","3","Classical_7.mp3","music"
"5f5f26703e0a0500093457fc","computer","12","1004.3000000000466","2","Classical_15.mp3","music"
"5f5f26703e0a0500093457fc","computer","13","772.7999999998137","2","Classical_18.mp3","music"
"5f5f26703e0a0500093457fc","computer","14","2319.5","2","Cut_jazz_10.mp3","music"
"5f5f26703e0a0500093457fc","computer","15","1501.8000000000466","3","Cut_jazz_14.mp3","music"
"5f5f26703e0a0500093457fc","computer","16","799.8000000000466","2","Classical_6.mp3","music"
"5f5f26703e0a0500093457fc","computer","17","745","3","Cut_jazz_5.mp3","music"
"5f5f26703e0a0500093457fc","computer","18","848.1999999999534","2","Classical_19.mp3","music"
"5f5f26703e0a0500093457fc","computer","19","1459.6999999999534","4","Classical_8.mp3","music"
"5f3b2b15f5d396257a4cd215","computer","1","1482.5","6","Classical_17.mp3","music"
"5f3b2b15f5d396257a4cd215","computer","2","586","6","Classical_18.mp3","music"
"5f3b2b15f5d396257a4cd215","computer","3","2063.7000000178814","7","Classical_6.mp3","music"
"5f3b2b15f5d396257a4cd215","computer","4","1218","6","Classical_2.mp3","music"
"5f3b2b15f5d396257a4cd215","computer","5","1625.199999988079","4","Cut_jazz_7.mp3","music"
"5f3b2b15f5d396257a4cd215","computer","6","2045.5999999940395","7","Classical_19.mp3","music"
"5f3b2b15f5d396257a4cd215","computer","7","4459.200000017881","7","Classical_15.mp3","music"
"5f3b2b15f5d396257a4cd215","computer","8","14118.90000000596","1","Cut_jazz_10.mp3","music"
"5f3b2b15f5d396257a4cd215","computer","9","3317.4000000059605","4","Classical_4.mp3","music"
"5f3b2b15f5d396257a4cd215","computer","10","3052.5","6","Cut_jazz_14.mp3","music"
"5f3b2b15f5d396257a4cd215","computer","11","1564","6","Cut_jazz_2.mp3","music"
"5f3b2b15f5d396257a4cd215","computer","12","8814.59999999404","8","Classical_7.mp3","music"
"5f3b2b15f5d396257a4cd215","computer","13","1154.3999999761581","2","foil.mp3","music"
"5f3b2b15f5d396257a4cd215","computer","14","4079.5999999940395","3","Cut_jazz_1.mp3","music"
"5f3b2b15f5d396257a4cd215","computer","15","1392.7999999821186","3","Cut_jazz_19.mp3","music"
"5f3b2b15f5d396257a4cd215","computer","16","1812.0999999940395","2","Cut_jazz_16.mp3","music"
"5f3b2b15f5d396257a4cd215","computer","17","2929.300000011921","2","Cut_jazz_5.mp3","music"
"5f3b2b15f5d396257a4cd215","computer","18","889.8000000119209","9","Classical_8.mp3","music"
"5f3b2b15f5d396257a4cd215","computer","19","588.3000000119209","8","Classical_1.mp3","music"
"5ddb5ed4a64380abb2907440","computer","1","1033","4","Classical_18.mp3","music"
"5ddb5ed4a64380abb2907440","computer","2","864","7","Classical_19.mp3","music"
"5ddb5ed4a64380abb2907440","computer","3","1136","6","Cut_jazz_19.mp3","music"
"5ddb5ed4a64380abb2907440","computer","4","1377","6","Classical_1.mp3","music"
"5ddb5ed4a64380abb2907440","computer","5","1090","5","Cut_jazz_7.mp3","music"
"5ddb5ed4a64380abb2907440","computer","6","711","3","Cut_jazz_1.mp3","music"
"5ddb5ed4a64380abb2907440","computer","7","1097","6","Classical_7.mp3","music"
"5ddb5ed4a64380abb2907440","computer","8","814","2","Cut_jazz_10.mp3","music"
"5ddb5ed4a64380abb2907440","computer","9","869","2","Cut_jazz_5.mp3","music"
"5ddb5ed4a64380abb2907440","computer","10","1245","2","foil.mp3","music"
"5ddb5ed4a64380abb2907440","computer","11","1291","4","Cut_jazz_16.mp3","music"
"5ddb5ed4a64380abb2907440","computer","12","2160","5","Classical_2.mp3","music"
"5ddb5ed4a64380abb2907440","computer","13","858","6","Classical_4.mp3","music"
"5ddb5ed4a64380abb2907440","computer","14","1313","5","Classical_6.mp3","music"
"5ddb5ed4a64380abb2907440","computer","15","1470","5","Classical_17.mp3","music"
"5ddb5ed4a64380abb2907440","computer","16","1961","7","Cut_jazz_14.mp3","music"
"5ddb5ed4a64380abb2907440","computer","17","1604","5","Classical_15.mp3","music"
"5ddb5ed4a64380abb2907440","computer","18","13132","5","Classical_8.mp3","music"
"5ddb5ed4a64380abb2907440","computer","19","1067","4","Cut_jazz_2.mp3","music"
"60576ce95933970d7f0b8fc2","computer","1","859.8999998569489","1","Cut_jazz_10.mp3","music"
"60576ce95933970d7f0b8fc2","computer","2","1212","7","Cut_jazz_2.mp3","music"
"60576ce95933970d7f0b8fc2","computer","3","2809.199999809265","6","Classical_18.mp3","music"
"60576ce95933970d7f0b8fc2","computer","4","470.09999990463257","9","Classical_17.mp3","music"
"60576ce95933970d7f0b8fc2","computer","5","610.7999999523163","9","Classical_1.mp3","music"
"60576ce95933970d7f0b8fc2","computer","6","771.5","9","Cut_jazz_14.mp3","music"
"60576ce95933970d7f0b8fc2","computer","7","816.2000000476837","6","Cut_jazz_7.mp3","music"
"60576ce95933970d7f0b8fc2","computer","8","1118.8999998569489","4","Classical_8.mp3","music"
"60576ce95933970d7f0b8fc2","computer","9","872.2999999523163","1","Cut_jazz_1.mp3","music"
"60576ce95933970d7f0b8fc2","computer","10","1729.8999998569489","1","Cut_jazz_19.mp3","music"
"60576ce95933970d7f0b8fc2","computer","11","762.2999999523163","9","Classical_19.mp3","music"
"60576ce95933970d7f0b8fc2","computer","12","1178.3999998569489","2","foil.mp3","music"
"60576ce95933970d7f0b8fc2","computer","13","6991.099999904633","3","Classical_15.mp3","music"
"60576ce95933970d7f0b8fc2","computer","14","1782.5","3","Classical_6.mp3","music"
"60576ce95933970d7f0b8fc2","computer","15","625.8999998569489","1","Cut_jazz_5.mp3","music"
"60576ce95933970d7f0b8fc2","computer","16","2528.5","4","Classical_2.mp3","music"
"60576ce95933970d7f0b8fc2","computer","17","1507.6000001430511","4","Cut_jazz_16.mp3","music"
"60576ce95933970d7f0b8fc2","computer","18","1916","7","Classical_7.mp3","music"
"60576ce95933970d7f0b8fc2","computer","19","2773.9000000953674","4","Classical_4.mp3","music"
"5f19bba876821d0295c3e036","computer","1","2513","2","Classical_6.mp3","music"
"5f19bba876821d0295c3e036","computer","2","843","3","Cut_jazz_10.mp3","music"
"5f19bba876821d0295c3e036","computer","3","1222","7","Cut_jazz_5.mp3","music"
"5f19bba876821d0295c3e036","computer","4","765","6","Classical_1.mp3","music"
"5f19bba876821d0295c3e036","computer","5","1000","4","Classical_15.mp3","music"
"5f19bba876821d0295c3e036","computer","6","772","6","Classical_18.mp3","music"
"5f19bba876821d0295c3e036","computer","7","2475","2","Classical_8.mp3","music"
"5f19bba876821d0295c3e036","computer","8","774","9","Cut_jazz_7.mp3","music"
"5f19bba876821d0295c3e036","computer","9","542","9","Cut_jazz_2.mp3","music"
"5f19bba876821d0295c3e036","computer","10","2751","9","Classical_19.mp3","music"
"5f19bba876821d0295c3e036","computer","11","2447","4","Classical_2.mp3","music"
"5f19bba876821d0295c3e036","computer","12","2502","4","Cut_jazz_19.mp3","music"
"5f19bba876821d0295c3e036","computer","13","1562","2","foil.mp3","music"
"5f19bba876821d0295c3e036","computer","14","1505","8","Classical_7.mp3","music"
"5f19bba876821d0295c3e036","computer","15","3373","2","Classical_4.mp3","music"
"5f19bba876821d0295c3e036","computer","16","3601","4","Cut_jazz_1.mp3","music"
"5f19bba876821d0295c3e036","computer","17","4044","5","Cut_jazz_14.mp3","music"
"5f19bba876821d0295c3e036","computer","18","7017","3","Classical_17.mp3","music"
"5f19bba876821d0295c3e036","computer","19","773","4","Cut_jazz_16.mp3","music"
"5f40f1a20f691d2491077a83","computer","1","3020","7","Classical_1.mp3","music"
"5f40f1a20f691d2491077a83","computer","2","1955","5","Classical_6.mp3","music"
"5f40f1a20f691d2491077a83","computer","3","1620","6","Classical_15.mp3","music"
"5f40f1a20f691d2491077a83","computer","4","2526","6","Cut_jazz_19.mp3","music"
"5f40f1a20f691d2491077a83","computer","5","13900","6","Classical_8.mp3","music"
"5f40f1a20f691d2491077a83","computer","6","2621","7","Classical_4.mp3","music"
"5f40f1a20f691d2491077a83","computer","7","1625","8","Cut_jazz_14.mp3","music"
"5f40f1a20f691d2491077a83","computer","8","3762","6","Classical_2.mp3","music"
"5f40f1a20f691d2491077a83","computer","9","1545","1","Cut_jazz_5.mp3","music"
"5f40f1a20f691d2491077a83","computer","10","1598","6","Cut_jazz_7.mp3","music"
"5f40f1a20f691d2491077a83","computer","11","1559","5","Classical_18.mp3","music"
"5f40f1a20f691d2491077a83","computer","12","1867","3","Cut_jazz_1.mp3","music"
"5f40f1a20f691d2491077a83","computer","13","3697","5","Classical_19.mp3","music"
"5f40f1a20f691d2491077a83","computer","14","2039","6","Classical_7.mp3","music"
"5f40f1a20f691d2491077a83","computer","15","1576","2","foil.mp3","music"
"5f40f1a20f691d2491077a83","computer","16","3176","5","Classical_17.mp3","music"
"5f40f1a20f691d2491077a83","computer","17","1792","1","Cut_jazz_10.mp3","music"
"5f40f1a20f691d2491077a83","computer","18","1843","5","Cut_jazz_16.mp3","music"
"5f40f1a20f691d2491077a83","computer","19","3750","6","Cut_jazz_2.mp3","music"
"5ca0326cc00f5a0001f99339","computer","1","1534","6","Classical_19.mp3","music"
"5ca0326cc00f5a0001f99339","computer","2","1395","9","Classical_4.mp3","music"
"5ca0326cc00f5a0001f99339","computer","3","1502","4","Classical_15.mp3","music"
"5ca0326cc00f5a0001f99339","computer","4","887","3","Classical_6.mp3","music"
"5ca0326cc00f5a0001f99339","computer","5","756","2","Cut_jazz_1.mp3","music"
"5ca0326cc00f5a0001f99339","computer","6","555","2","Classical_1.mp3","music"
"5ca0326cc00f5a0001f99339","computer","7","618","6","Classical_17.mp3","music"
"5ca0326cc00f5a0001f99339","computer","8","639","8","Cut_jazz_19.mp3","music"
"5ca0326cc00f5a0001f99339","computer","9","1575","2","foil.mp3","music"
"5ca0326cc00f5a0001f99339","computer","10","547","6","Cut_jazz_14.mp3","music"
"5ca0326cc00f5a0001f99339","computer","11","1495","3","Classical_18.mp3","music"
"5ca0326cc00f5a0001f99339","computer","12","2198","6","Cut_jazz_10.mp3","music"
"5ca0326cc00f5a0001f99339","computer","13","694","4","Classical_2.mp3","music"
"5ca0326cc00f5a0001f99339","computer","14","778","9","Cut_jazz_2.mp3","music"
"5ca0326cc00f5a0001f99339","computer","15","781","3","Cut_jazz_16.mp3","music"
"5ca0326cc00f5a0001f99339","computer","16","884","6","Cut_jazz_5.mp3","music"
"5ca0326cc00f5a0001f99339","computer","17","636","9","Cut_jazz_7.mp3","music"
"5ca0326cc00f5a0001f99339","computer","18","463","7","Classical_7.mp3","music"
"5ca0326cc00f5a0001f99339","computer","19","426","9","Classical_8.mp3","music"
