"Prolific_ID","Participant.Device.Type","Trial.Number","Reaction.Time","Response","display","ImageStim","MusicStim","StimCued"
"5ddb5ed4a64380abb2907440","computer","4","1216","1","Post","image34.jpg","Classical_1.mp3","Image"
"5ddb5ed4a64380abb2907440","computer","5","868","7","Post","image17.jpg","Classical_18.mp3","Image"
"5ddb5ed4a64380abb2907440","computer","6","959","2","Post","image35.jpg","Classical_4.mp3","Image"
"5ddb5ed4a64380abb2907440","computer","7","1791","6","Post","image52.jpg","Cut_jazz_5.mp3","Both"
"5ddb5ed4a64380abb2907440","computer","8","4172","4","Post","image4.jpg","Cut_jazz_1.mp3","Music"
"5ddb5ed4a64380abb2907440","computer","9","1580","8","Post","image20.jpg","Classical_6.mp3","Image"
"5ddb5ed4a64380abb2907440","computer","10","1861","4","Post","image12.jpg","Cut_jazz_16.mp3","Music"
"5ddb5ed4a64380abb2907440","computer","11","1422","1","Post","image4.jpg","Classical_19.mp3","Both"
"5ddb5ed4a64380abb2907440","computer","12","1251","7","Post","image2.jpg","Classical_8.mp3","Both"
"5ddb5ed4a64380abb2907440","computer","13","1343","5","Post","image14.jpg","Classical_18.mp3","Both"
"5ddb5ed4a64380abb2907440","computer","14","1390","1","Post","image1.jpg","Cut_jazz_16.mp3","Image"
"5ddb5ed4a64380abb2907440","computer","15","2093","4","Post","image5.jpg","Cut_jazz_10.mp3","Music"
"5ddb5ed4a64380abb2907440","computer","16","1287","4","Post","image36.jpg","Cut_jazz_2.mp3","Both"
"5ddb5ed4a64380abb2907440","computer","17","1489","7","Post","image14.jpg","Classical_15.mp3","Music"
"5ddb5ed4a64380abb2907440","computer","18","1844","4","Post","image10.jpg","Cut_jazz_16.mp3","Both"
"5ddb5ed4a64380abb2907440","computer","19","975","7","Post","image20.jpg","Classical_8.mp3","Music"
"5ddb5ed4a64380abb2907440","computer","20","968","6","Post","image33.jpg","Classical_1.mp3","Music"
"5ddb5ed4a64380abb2907440","computer","21","1308","9","Post","image14.jpg","Classical_17.mp3","Image"
"5ddb5ed4a64380abb2907440","computer","22","1239","3","Post","image35.jpg","Classical_2.mp3","Music"
"5ddb5ed4a64380abb2907440","computer","23","1474","6","Post","image39.jpg","Cut_jazz_1.mp3","Both"
"5ddb5ed4a64380abb2907440","computer","24","916","1","Post","image15.jpg","Classical_15.mp3","Image"
"5ddb5ed4a64380abb2907440","computer","25","2868","2","Post","image12.jpg","Cut_jazz_14.mp3","Both"
"5ddb5ed4a64380abb2907440","computer","26","1313","6","Post","image36.jpg","Classical_19.mp3","Music"
"5ddb5ed4a64380abb2907440","computer","27","1755","6","Post","image3.jpg","Classical_7.mp3","Music"
"5ddb5ed4a64380abb2907440","computer","28","1377","5","Post","image17.jpg","Classical_17.mp3","Music"
"5ddb5ed4a64380abb2907440","computer","29","2456","6","Post","image34.jpg","Classical_4.mp3","Music"
"5ddb5ed4a64380abb2907440","computer","30","1109","5","Post","image15.jpg","Classical_18.mp3","Music"
"5ddb5ed4a64380abb2907440","computer","31","1941","2","Post","image12.jpg","Cut_jazz_19.mp3","Image"
"5ddb5ed4a64380abb2907440","computer","32","1822","7","Post","image2.jpg","Classical_6.mp3","Music"
"5ddb5ed4a64380abb2907440","computer","33","868","7","Post","image3.jpg","Classical_8.mp3","Image"
"5ddb5ed4a64380abb2907440","computer","34","1271","6","Post","image52.jpg","Cut_jazz_7.mp3","Music"
"5ddb5ed4a64380abb2907440","computer","35","2185","3","Post","image10.jpg","Cut_jazz_14.mp3","Image"
"5ddb5ed4a64380abb2907440","computer","36","1584","5","Post","image35.jpg","Classical_1.mp3","Both"
"5ddb5ed4a64380abb2907440","computer","37","1189","3","Post","image1.jpg","Cut_jazz_14.mp3","Music"
"5ddb5ed4a64380abb2907440","computer","38","1421","6","Post","image2.jpg","Classical_7.mp3","Image"
"5ddb5ed4a64380abb2907440","computer","39","936","6","Post","image39.jpg","Classical_19.mp3","Image"
"5ddb5ed4a64380abb2907440","computer","40","576","1","Post","image47.jpg","Cut_jazz_7.mp3","Image"
"5ddb5ed4a64380abb2907440","computer","41","1358","6","Post","image39.jpg","Cut_jazz_2.mp3","Music"
"5ddb5ed4a64380abb2907440","computer","42","573","5","Post","image3.jpg","Classical_6.mp3","Both"
"5ddb5ed4a64380abb2907440","computer","43","868","5","Post","image52.jpg","Cut_jazz_10.mp3","Image"
"5ddb5ed4a64380abb2907440","computer","44","1246","7","Post","image33.jpg","Classical_4.mp3","Both"
"5ddb5ed4a64380abb2907440","computer","45","1023","5","Post","image10.jpg","Cut_jazz_19.mp3","Music"
"5ddb5ed4a64380abb2907440","computer","46","1814","7","Post","image5.jpg","Cut_jazz_7.mp3","Both"
"5ddb5ed4a64380abb2907440","computer","47","1020","6","Post","image1.jpg","Cut_jazz_19.mp3","Both"
"5ddb5ed4a64380abb2907440","computer","48","1736","3","Post","image15.jpg","Classical_17.mp3","Both"
"5ddb5ed4a64380abb2907440","computer","49","2016","2","Post","image47.jpg","Cut_jazz_10.mp3","Both"
"5ddb5ed4a64380abb2907440","computer","50","1749","6","Post","image20.jpg","Classical_7.mp3","Both"
"5ddb5ed4a64380abb2907440","computer","51","2212","3","Post","image47.jpg","Cut_jazz_5.mp3","Music"
"5ddb5ed4a64380abb2907440","computer","52","732","1","Post","image34.jpg","Classical_2.mp3","Both"
"5ddb5ed4a64380abb2907440","computer","53","938","7","Post","image17.jpg","Classical_15.mp3","Both"
"5ddb5ed4a64380abb2907440","computer","54","921","2","Post","image33.jpg","Classical_2.mp3","Image"
"5ddb5ed4a64380abb2907440","computer","55","786","1","Post","image4.jpg","Cut_jazz_2.mp3","Image"
"5ddb5ed4a64380abb2907440","computer","56","943","7","Post","image5.jpg","Cut_jazz_5.mp3","Image"
"5ddb5ed4a64380abb2907440","computer","57","1344","1","Post","image36.jpg","Cut_jazz_1.mp3","Image"
"5ddb5ed4a64380abb2907440","computer","4","2253","8","Pre","image14.jpg","Cut_jazz_19.mp3","Both"
"5ddb5ed4a64380abb2907440","computer","5","819","7","Pre","image17.jpg","Cut_jazz_14.mp3","Both"
"5ddb5ed4a64380abb2907440","computer","6","1527","5","Pre","image35.jpg","Classical_7.mp3","Music"
"5ddb5ed4a64380abb2907440","computer","7","1120","1","Pre","image1.jpg","Cut_jazz_1.mp3","Image"
"5ddb5ed4a64380abb2907440","computer","8","1336","6","Pre","image47.jpg","Classical_1.mp3","Music"
"5ddb5ed4a64380abb2907440","computer","9","1808","8","Pre","image2.jpg","Classical_17.mp3","Image"
"5ddb5ed4a64380abb2907440","computer","10","1374","2","Pre","image39.jpg","Cut_jazz_10.mp3","Music"
"5ddb5ed4a64380abb2907440","computer","11","1132","7","Pre","image20.jpg","Classical_18.mp3","Music"
"5ddb5ed4a64380abb2907440","computer","12","1300","5","Pre","image1.jpg","Classical_19.mp3","Music"
"5ddb5ed4a64380abb2907440","computer","13","989","1","Pre","image4.jpg","Cut_jazz_10.mp3","Image"
"5ddb5ed4a64380abb2907440","computer","14","2692","2","Pre","image15.jpg","Cut_jazz_16.mp3","Both"
"5ddb5ed4a64380abb2907440","computer","15","1702","7","Pre","image5.jpg","Classical_1.mp3","Image"
"5ddb5ed4a64380abb2907440","computer","16","967","3","Pre","image33.jpg","Classical_8.mp3","Both"
"5ddb5ed4a64380abb2907440","computer","17","911","3","Pre","image36.jpg","Cut_jazz_10.mp3","Both"
"5ddb5ed4a64380abb2907440","computer","18","3639","6","Pre","image3.jpg","Classical_18.mp3","Image"
"5ddb5ed4a64380abb2907440","computer","19","1022","5","Pre","image33.jpg","Classical_7.mp3","Image"
"5ddb5ed4a64380abb2907440","computer","20","994","2","Pre","image1.jpg","Cut_jazz_2.mp3","Both"
"5ddb5ed4a64380abb2907440","computer","21","2135","2","Pre","image4.jpg","Cut_jazz_7.mp3","Music"
"5ddb5ed4a64380abb2907440","computer","22","1408","8","Pre","image20.jpg","Classical_17.mp3","Both"
"5ddb5ed4a64380abb2907440","computer","23","1556","7","Pre","image17.jpg","Cut_jazz_16.mp3","Music"
"5ddb5ed4a64380abb2907440","computer","24","1286","8","Pre","image20.jpg","Classical_15.mp3","Image"
"5ddb5ed4a64380abb2907440","computer","25","1375","6","Pre","image14.jpg","Cut_jazz_14.mp3","Music"
"5ddb5ed4a64380abb2907440","computer","26","902","6","Pre","image2.jpg","Classical_15.mp3","Music"
"5ddb5ed4a64380abb2907440","computer","27","830","2","Pre","image36.jpg","Cut_jazz_7.mp3","Image"
"5ddb5ed4a64380abb2907440","computer","28","1795","8","Pre","image14.jpg","Cut_jazz_16.mp3","Image"
"5ddb5ed4a64380abb2907440","computer","29","1256","5","Pre","image33.jpg","Classical_6.mp3","Music"
"5ddb5ed4a64380abb2907440","computer","30","1484","6","Pre","image5.jpg","Classical_4.mp3","Music"
"5ddb5ed4a64380abb2907440","computer","31","1605","8","Pre","image17.jpg","Cut_jazz_19.mp3","Image"
"5ddb5ed4a64380abb2907440","computer","32","1459","6","Pre","image2.jpg","Classical_18.mp3","Both"
"5ddb5ed4a64380abb2907440","computer","33","1265","6","Pre","image52.jpg","Classical_4.mp3","Image"
"5ddb5ed4a64380abb2907440","computer","34","1225","2","Pre","image10.jpg","Cut_jazz_1.mp3","Both"
"5ddb5ed4a64380abb2907440","computer","35","1415","6","Pre","image12.jpg","Classical_19.mp3","Both"
"5ddb5ed4a64380abb2907440","computer","36","1362","2","Pre","image35.jpg","Classical_8.mp3","Image"
"5ddb5ed4a64380abb2907440","computer","37","1027","3","Pre","image10.jpg","Cut_jazz_2.mp3","Music"
"5ddb5ed4a64380abb2907440","computer","38","1310","6","Pre","image3.jpg","Classical_17.mp3","Music"
"5ddb5ed4a64380abb2907440","computer","39","1240","2","Pre","image47.jpg","Classical_2.mp3","Image"
"5ddb5ed4a64380abb2907440","computer","40","1571","4","Pre","image35.jpg","Classical_6.mp3","Both"
"5ddb5ed4a64380abb2907440","computer","41","931","7","Pre","image5.jpg","Classical_2.mp3","Both"
"5ddb5ed4a64380abb2907440","computer","42","1498","5","Pre","image15.jpg","Cut_jazz_19.mp3","Music"
"5ddb5ed4a64380abb2907440","computer","43","2068","6","Pre","image39.jpg","Cut_jazz_7.mp3","Both"
"5ddb5ed4a64380abb2907440","computer","44","1136","1","Pre","image4.jpg","Cut_jazz_5.mp3","Both"
"5ddb5ed4a64380abb2907440","computer","45","1560","3","Pre","image47.jpg","Classical_4.mp3","Both"
"5ddb5ed4a64380abb2907440","computer","46","1054","4","Pre","image3.jpg","Classical_15.mp3","Both"
"5ddb5ed4a64380abb2907440","computer","47","26161","3","Pre","image12.jpg","Cut_jazz_2.mp3","Image"
"5ddb5ed4a64380abb2907440","computer","48","1623","2","Pre","image36.jpg","Cut_jazz_5.mp3","Music"
"5ddb5ed4a64380abb2907440","computer","49","2045","4","Pre","image10.jpg","Classical_19.mp3","Image"
"5ddb5ed4a64380abb2907440","computer","50","2457","2","Pre","image34.jpg","Classical_7.mp3","Both"
"5ddb5ed4a64380abb2907440","computer","51","983","6","Pre","image52.jpg","Classical_1.mp3","Both"
"5ddb5ed4a64380abb2907440","computer","52","2677","6","Pre","image39.jpg","Cut_jazz_5.mp3","Image"
"5ddb5ed4a64380abb2907440","computer","53","983","6","Pre","image52.jpg","Classical_2.mp3","Music"
"5ddb5ed4a64380abb2907440","computer","54","1501","5","Pre","image34.jpg","Classical_8.mp3","Music"
"5ddb5ed4a64380abb2907440","computer","55","1007","6","Pre","image12.jpg","Cut_jazz_1.mp3","Music"
"5ddb5ed4a64380abb2907440","computer","56","1579","2","Pre","image34.jpg","Classical_6.mp3","Image"
"5ddb5ed4a64380abb2907440","computer","57","1994","3","Pre","image15.jpg","Cut_jazz_14.mp3","Image"
"5d847ac9be4b0b00188463d7","computer","4","1587.69999999925","5","Post","image17.jpg","Cut_jazz_7.mp3","Music"
"5d847ac9be4b0b00188463d7","computer","5","2966.69999999925","3","Post","image36.jpg","Classical_2.mp3","Image"
"5d847ac9be4b0b00188463d7","computer","6","817.599999997765","8","Post","image20.jpg","Cut_jazz_2.mp3","Music"
"5d847ac9be4b0b00188463d7","computer","7","2449.60000000149","6","Post","image35.jpg","Cut_jazz_16.mp3","Music"
"5d847ac9be4b0b00188463d7","computer","8","662.199999999255","1","Post","image1.jpg","Classical_17.mp3","Image"
"5d847ac9be4b0b00188463d7","computer","9","963.70000000298","1","Post","image47.jpg","Classical_7.mp3","Image"
"5d847ac9be4b0b00188463d7","computer","10","1098.30000000075","3","Post","image17.jpg","Cut_jazz_10.mp3","Image"
"5d847ac9be4b0b00188463d7","computer","11","1489.30000000075","7","Post","image12.jpg","Classical_17.mp3","Music"
"5d847ac9be4b0b00188463d7","computer","12","776.10000000149","1","Post","image15.jpg","Cut_jazz_5.mp3","Image"
"5d847ac9be4b0b00188463d7","computer","13","1200.20000000298","6","Post","image36.jpg","Classical_1.mp3","Music"
"5d847ac9be4b0b00188463d7","computer","14","2746.80000000075","2","Post","image15.jpg","Cut_jazz_7.mp3","Both"
"5d847ac9be4b0b00188463d7","computer","15","1126.69999999925","6","Post","image52.jpg","Classical_8.mp3","Image"
"5d847ac9be4b0b00188463d7","computer","16","1431.60000000149","2","Post","image35.jpg","Cut_jazz_19.mp3","Image"
"5d847ac9be4b0b00188463d7","computer","17","947.39999999851","6","Post","image3.jpg","Cut_jazz_2.mp3","Image"
"5d847ac9be4b0b00188463d7","computer","18","1360.20000000298","7","Post","image14.jpg","Cut_jazz_7.mp3","Image"
"5d847ac9be4b0b00188463d7","computer","19","744.39999999851","6","Post","image52.jpg","Classical_7.mp3","Music"
"5d847ac9be4b0b00188463d7","computer","20","1378.30000000075","2","Post","image1.jpg","Classical_18.mp3","Both"
"5d847ac9be4b0b00188463d7","computer","21","1360","4","Post","image2.jpg","Cut_jazz_2.mp3","Both"
"5d847ac9be4b0b00188463d7","computer","22","2266.59999999776","2","Post","image47.jpg","Classical_8.mp3","Both"
"5d847ac9be4b0b00188463d7","computer","23","1189.40000000224","3","Post","image12.jpg","Classical_15.mp3","Both"
"5d847ac9be4b0b00188463d7","computer","24","690.699999999255","9","Post","image20.jpg","Classical_19.mp3","Image"
"5d847ac9be4b0b00188463d7","computer","25","2050","6","Post","image52.jpg","Classical_6.mp3","Both"
"5d847ac9be4b0b00188463d7","computer","26","618.199999999255","1","Post","image4.jpg","Classical_1.mp3","Both"
"5d847ac9be4b0b00188463d7","computer","27","1492.69999999925","5","Post","image2.jpg","Classical_19.mp3","Music"
"5d847ac9be4b0b00188463d7","computer","28","1259.30000000075","4","Post","image5.jpg","Classical_8.mp3","Music"
"5d847ac9be4b0b00188463d7","computer","29","2827.5","2","Post","image34.jpg","Cut_jazz_16.mp3","Both"
"5d847ac9be4b0b00188463d7","computer","30","733.400000002235","1","Post","image4.jpg","Classical_4.mp3","Image"
"5d847ac9be4b0b00188463d7","computer","31","4794.10000000149","3","Post","image33.jpg","Cut_jazz_19.mp3","Both"
"5d847ac9be4b0b00188463d7","computer","32","3124.80000000075","6","Post","image3.jpg","Classical_19.mp3","Both"
"5d847ac9be4b0b00188463d7","computer","33","1062.5","5","Post","image14.jpg","Cut_jazz_10.mp3","Both"
"5d847ac9be4b0b00188463d7","computer","34","1522.29999999702","7","Post","image39.jpg","Classical_4.mp3","Music"
"5d847ac9be4b0b00188463d7","computer","35","2294.90000000224","3","Post","image10.jpg","Classical_17.mp3","Both"
"5d847ac9be4b0b00188463d7","computer","36","605.300000000745","9","Post","image33.jpg","Cut_jazz_14.mp3","Music"
"5d847ac9be4b0b00188463d7","computer","37","1120.19999999925","3","Post","image36.jpg","Classical_4.mp3","Both"
"5d847ac9be4b0b00188463d7","computer","38","998.199999999255","1","Post","image34.jpg","Cut_jazz_14.mp3","Image"
"5d847ac9be4b0b00188463d7","computer","39","899.10000000149","1","Post","image12.jpg","Classical_18.mp3","Image"
"5d847ac9be4b0b00188463d7","computer","40","1101.09999999776","6","Post","image34.jpg","Cut_jazz_19.mp3","Music"
"5d847ac9be4b0b00188463d7","computer","41","1660.69999999925","2","Post","image2.jpg","Cut_jazz_1.mp3","Image"
"5d847ac9be4b0b00188463d7","computer","42","2143.69999999925","4","Post","image1.jpg","Classical_15.mp3","Music"
"5d847ac9be4b0b00188463d7","computer","43","714.199999999255","3","Post","image14.jpg","Cut_jazz_5.mp3","Music"
"5d847ac9be4b0b00188463d7","computer","44","2235.40000000224","7","Post","image5.jpg","Classical_7.mp3","Both"
"5d847ac9be4b0b00188463d7","computer","45","2133.5","5","Post","image39.jpg","Classical_1.mp3","Image"
"5d847ac9be4b0b00188463d7","computer","46","507.20000000298","6","Post","image5.jpg","Classical_6.mp3","Image"
"5d847ac9be4b0b00188463d7","computer","47","857.89999999851","6","Post","image10.jpg","Classical_18.mp3","Music"
"5d847ac9be4b0b00188463d7","computer","48","1178.30000000075","2","Post","image3.jpg","Cut_jazz_1.mp3","Music"
"5d847ac9be4b0b00188463d7","computer","49","1068.30000000075","1","Post","image33.jpg","Cut_jazz_16.mp3","Image"
"5d847ac9be4b0b00188463d7","computer","50","1898.30000000075","4","Post","image39.jpg","Classical_2.mp3","Both"
"5d847ac9be4b0b00188463d7","computer","51","888.39999999851","2","Post","image35.jpg","Cut_jazz_14.mp3","Both"
"5d847ac9be4b0b00188463d7","computer","52","1061.69999999925","4","Post","image20.jpg","Cut_jazz_1.mp3","Both"
"5d847ac9be4b0b00188463d7","computer","53","866.699999999255","2","Post","image17.jpg","Cut_jazz_5.mp3","Both"
"5d847ac9be4b0b00188463d7","computer","54","1461.10000000149","1","Post","image15.jpg","Cut_jazz_10.mp3","Music"
"5d847ac9be4b0b00188463d7","computer","55","989.800000000745","5","Post","image4.jpg","Classical_2.mp3","Music"
"5d847ac9be4b0b00188463d7","computer","56","1243.39999999851","1","Post","image10.jpg","Classical_15.mp3","Image"
"5d847ac9be4b0b00188463d7","computer","57","2500.20000000298","6","Post","image47.jpg","Classical_6.mp3","Music"
"5d847ac9be4b0b00188463d7","computer","4","1166.30000000075","4","Pre","image52.jpg","Cut_jazz_1.mp3","Music"
"5d847ac9be4b0b00188463d7","computer","5","855.699999999255","2","Pre","image2.jpg","Classical_17.mp3","Image"
"5d847ac9be4b0b00188463d7","computer","6","1114.79999999702","3","Pre","image5.jpg","Cut_jazz_1.mp3","Both"
"5d847ac9be4b0b00188463d7","computer","7","939.89999999851","5","Pre","image15.jpg","Classical_4.mp3","Music"
"5d847ac9be4b0b00188463d7","computer","8","1532.39999999851","6","Pre","image35.jpg","Classical_7.mp3","Music"
"5d847ac9be4b0b00188463d7","computer","9","1053.5","6","Pre","image2.jpg","Classical_15.mp3","Music"
"5d847ac9be4b0b00188463d7","computer","10","718.5","1","Pre","image15.jpg","Classical_1.mp3","Image"
"5d847ac9be4b0b00188463d7","computer","11","3649.5","6","Pre","image39.jpg","Cut_jazz_16.mp3","Both"
"5d847ac9be4b0b00188463d7","computer","12","1058.60000000149","9","Pre","image20.jpg","Classical_15.mp3","Image"
"5d847ac9be4b0b00188463d7","computer","13","1888.5","3","Pre","image4.jpg","Cut_jazz_16.mp3","Music"
"5d847ac9be4b0b00188463d7","computer","14","759.400000002235","1","Pre","image47.jpg","Cut_jazz_2.mp3","Both"
"5d847ac9be4b0b00188463d7","computer","15","2015.30000000075","7","Pre","image20.jpg","Classical_18.mp3","Music"
"5d847ac9be4b0b00188463d7","computer","16","5086.69999999925","2","Pre","image47.jpg","Classical_19.mp3","Music"
"5d847ac9be4b0b00188463d7","computer","17","954.699999999255","1","Pre","image10.jpg","Cut_jazz_7.mp3","Both"
"5d847ac9be4b0b00188463d7","computer","18","1319","7","Pre","image5.jpg","Classical_19.mp3","Image"
"5d847ac9be4b0b00188463d7","computer","19","2313.89999999851","1","Pre","image4.jpg","Cut_jazz_14.mp3","Both"
"5d847ac9be4b0b00188463d7","computer","20","1221.80000000075","8","Pre","image14.jpg","Classical_2.mp3","Image"
"5d847ac9be4b0b00188463d7","computer","21","899.699999999255","1","Pre","image1.jpg","Cut_jazz_10.mp3","Both"
"5d847ac9be4b0b00188463d7","computer","22","1708.19999999925","5","Pre","image39.jpg","Cut_jazz_19.mp3","Music"
"5d847ac9be4b0b00188463d7","computer","23","1083.70000000298","1","Pre","image35.jpg","Classical_8.mp3","Image"
"5d847ac9be4b0b00188463d7","computer","24","935","6","Pre","image39.jpg","Cut_jazz_14.mp3","Image"
"5d847ac9be4b0b00188463d7","computer","25","861.199999999255","8","Pre","image17.jpg","Classical_2.mp3","Music"
"5d847ac9be4b0b00188463d7","computer","26","1011.40000000224","1","Pre","image12.jpg","Cut_jazz_10.mp3","Image"
"5d847ac9be4b0b00188463d7","computer","27","944.5","4","Pre","image52.jpg","Classical_19.mp3","Both"
"5d847ac9be4b0b00188463d7","computer","28","955.29999999702","1","Pre","image10.jpg","Cut_jazz_5.mp3","Image"
"5d847ac9be4b0b00188463d7","computer","29","863.599999997765","2","Pre","image36.jpg","Cut_jazz_19.mp3","Both"
"5d847ac9be4b0b00188463d7","computer","30","957.900000002235","1","Pre","image33.jpg","Classical_7.mp3","Image"
"5d847ac9be4b0b00188463d7","computer","31","952.199999999255","1","Pre","image1.jpg","Cut_jazz_7.mp3","Image"
"5d847ac9be4b0b00188463d7","computer","32","944.89999999851","7","Pre","image17.jpg","Classical_1.mp3","Both"
"5d847ac9be4b0b00188463d7","computer","33","1206.5","6","Pre","image20.jpg","Classical_17.mp3","Both"
"5d847ac9be4b0b00188463d7","computer","34","802.10000000149","1","Pre","image34.jpg","Classical_6.mp3","Image"
"5d847ac9be4b0b00188463d7","computer","35","4019.89999999851","1","Pre","image15.jpg","Classical_2.mp3","Both"
"5d847ac9be4b0b00188463d7","computer","36","1890.10000000149","3","Pre","image33.jpg","Classical_6.mp3","Music"
"5d847ac9be4b0b00188463d7","computer","37","2303.5","1","Pre","image12.jpg","Cut_jazz_5.mp3","Both"
"5d847ac9be4b0b00188463d7","computer","38","601.70000000298","1","Pre","image47.jpg","Cut_jazz_1.mp3","Image"
"5d847ac9be4b0b00188463d7","computer","39","799.699999999255","7","Pre","image14.jpg","Classical_1.mp3","Music"
"5d847ac9be4b0b00188463d7","computer","40","765.800000000745","2","Pre","image35.jpg","Classical_6.mp3","Both"
"5d847ac9be4b0b00188463d7","computer","41","923.60000000149","5","Pre","image3.jpg","Classical_18.mp3","Image"
"5d847ac9be4b0b00188463d7","computer","42","1383.29999999702","6","Pre","image14.jpg","Classical_4.mp3","Both"
"5d847ac9be4b0b00188463d7","computer","43","1063.60000000149","4","Pre","image52.jpg","Cut_jazz_2.mp3","Image"
"5d847ac9be4b0b00188463d7","computer","44","1043.40000000224","2","Pre","image2.jpg","Classical_18.mp3","Both"
"5d847ac9be4b0b00188463d7","computer","45","1681","5","Pre","image3.jpg","Classical_17.mp3","Music"
"5d847ac9be4b0b00188463d7","computer","46","1234.19999999925","7","Pre","image17.jpg","Classical_4.mp3","Image"
"5d847ac9be4b0b00188463d7","computer","47","945.199999999255","2","Pre","image34.jpg","Classical_8.mp3","Music"
"5d847ac9be4b0b00188463d7","computer","48","960.70000000298","4","Pre","image3.jpg","Classical_15.mp3","Both"
"5d847ac9be4b0b00188463d7","computer","49","877.20000000298","1","Pre","image33.jpg","Classical_8.mp3","Both"
"5d847ac9be4b0b00188463d7","computer","50","1751.89999999851","7","Pre","image12.jpg","Cut_jazz_7.mp3","Music"
"5d847ac9be4b0b00188463d7","computer","51","825","1","Pre","image4.jpg","Cut_jazz_19.mp3","Image"
"5d847ac9be4b0b00188463d7","computer","52","617.29999999702","1","Pre","image34.jpg","Classical_7.mp3","Both"
"5d847ac9be4b0b00188463d7","computer","53","875.60000000149","3","Pre","image5.jpg","Cut_jazz_2.mp3","Music"
"5d847ac9be4b0b00188463d7","computer","54","689.5","1","Pre","image36.jpg","Cut_jazz_16.mp3","Image"
"5d847ac9be4b0b00188463d7","computer","55","1457.10000000149","1","Pre","image1.jpg","Cut_jazz_5.mp3","Music"
"5d847ac9be4b0b00188463d7","computer","56","4480.19999999925","9","Pre","image36.jpg","Cut_jazz_14.mp3","Music"
"5d847ac9be4b0b00188463d7","computer","57","852.60000000149","2","Pre","image10.jpg","Cut_jazz_10.mp3","Music"
"5f503a5aaf6c8c1a78242005","computer","4","3125.19999992847","8","Post","image17.jpg","Cut_jazz_7.mp3","Music"
"5f503a5aaf6c8c1a78242005","computer","5","6737.79999995232","1","Post","image36.jpg","Classical_2.mp3","Image"
"5f503a5aaf6c8c1a78242005","computer","6","1331.19999992847","5","Post","image20.jpg","Cut_jazz_2.mp3","Music"
"5f503a5aaf6c8c1a78242005","computer","7","1482.80000007153","6","Post","image35.jpg","Cut_jazz_16.mp3","Music"
"5f503a5aaf6c8c1a78242005","computer","8","3326.10000002384","2","Post","image1.jpg","Classical_17.mp3","Image"
"5f503a5aaf6c8c1a78242005","computer","9","1752.89999997616","2","Post","image47.jpg","Classical_7.mp3","Image"
"5f503a5aaf6c8c1a78242005","computer","10","3703.79999995232","8","Post","image17.jpg","Cut_jazz_10.mp3","Image"
"5f503a5aaf6c8c1a78242005","computer","11","1194.19999992847","9","Post","image12.jpg","Classical_17.mp3","Music"
"5f503a5aaf6c8c1a78242005","computer","12","1198.60000002384","2","Post","image15.jpg","Cut_jazz_5.mp3","Image"
"5f503a5aaf6c8c1a78242005","computer","13","1103.89999997616","8","Post","image36.jpg","Classical_1.mp3","Music"
"5f503a5aaf6c8c1a78242005","computer","14","3584.5","2","Post","image15.jpg","Cut_jazz_7.mp3","Both"
"5f503a5aaf6c8c1a78242005","computer","15","1260.20000004768","9","Post","image52.jpg","Classical_8.mp3","Image"
"5f503a5aaf6c8c1a78242005","computer","16","2107.20000004768","2","Post","image35.jpg","Cut_jazz_19.mp3","Image"
"5f503a5aaf6c8c1a78242005","computer","17","1039","7","Post","image3.jpg","Cut_jazz_2.mp3","Image"
"5f503a5aaf6c8c1a78242005","computer","18","1484.5","8","Post","image14.jpg","Cut_jazz_7.mp3","Image"
"5f503a5aaf6c8c1a78242005","computer","19","1271.5","7","Post","image52.jpg","Classical_7.mp3","Music"
"5f503a5aaf6c8c1a78242005","computer","20","1102.69999992847","2","Post","image1.jpg","Classical_18.mp3","Both"
"5f503a5aaf6c8c1a78242005","computer","21","1339.89999997616","7","Post","image2.jpg","Cut_jazz_2.mp3","Both"
"5f503a5aaf6c8c1a78242005","computer","22","2842.39999997616","2","Post","image47.jpg","Classical_8.mp3","Both"
"5f503a5aaf6c8c1a78242005","computer","23","2651.80000007153","5","Post","image12.jpg","Classical_15.mp3","Both"
"5f503a5aaf6c8c1a78242005","computer","24","962.700000047684","9","Post","image20.jpg","Classical_19.mp3","Image"
"5f503a5aaf6c8c1a78242005","computer","25","934.400000095367","8","Post","image52.jpg","Classical_6.mp3","Both"
"5f503a5aaf6c8c1a78242005","computer","26","2061.5","2","Post","image4.jpg","Classical_1.mp3","Both"
"5f503a5aaf6c8c1a78242005","computer","27","1502.5","7","Post","image2.jpg","Classical_19.mp3","Music"
"5f503a5aaf6c8c1a78242005","computer","28","888.900000095367","9","Post","image5.jpg","Classical_8.mp3","Music"
"5f503a5aaf6c8c1a78242005","computer","29","1314.19999992847","1","Post","image34.jpg","Cut_jazz_16.mp3","Both"
"5f503a5aaf6c8c1a78242005","computer","30","710.300000071526","1","Post","image4.jpg","Classical_4.mp3","Image"
"5f503a5aaf6c8c1a78242005","computer","31","1063.20000004768","2","Post","image33.jpg","Cut_jazz_19.mp3","Both"
"5f503a5aaf6c8c1a78242005","computer","32","1184.10000002384","7","Post","image3.jpg","Classical_19.mp3","Both"
"5f503a5aaf6c8c1a78242005","computer","33","1499.5","4","Post","image14.jpg","Cut_jazz_10.mp3","Both"
"5f503a5aaf6c8c1a78242005","computer","34","1257.5","5","Post","image39.jpg","Classical_4.mp3","Music"
"5f503a5aaf6c8c1a78242005","computer","35","863.700000047684","4","Post","image10.jpg","Classical_17.mp3","Both"
"5f503a5aaf6c8c1a78242005","computer","36","1377.89999997616","4","Post","image33.jpg","Cut_jazz_14.mp3","Music"
"5f503a5aaf6c8c1a78242005","computer","37","1021.60000002384","3","Post","image36.jpg","Classical_4.mp3","Both"
"5f503a5aaf6c8c1a78242005","computer","38","933.699999928474","1","Post","image34.jpg","Cut_jazz_14.mp3","Image"
"5f503a5aaf6c8c1a78242005","computer","39","1935.79999995232","5","Post","image12.jpg","Classical_18.mp3","Image"
"5f503a5aaf6c8c1a78242005","computer","40","1142.89999997616","4","Post","image34.jpg","Cut_jazz_19.mp3","Music"
"5f503a5aaf6c8c1a78242005","computer","41","1502.60000002384","8","Post","image2.jpg","Cut_jazz_1.mp3","Image"
"5f503a5aaf6c8c1a78242005","computer","42","1428.89999997616","3","Post","image1.jpg","Classical_15.mp3","Music"
"5f503a5aaf6c8c1a78242005","computer","43","739","1","Post","image14.jpg","Cut_jazz_5.mp3","Music"
"5f503a5aaf6c8c1a78242005","computer","44","1509.60000002384","9","Post","image5.jpg","Classical_7.mp3","Both"
"5f503a5aaf6c8c1a78242005","computer","45","1570.79999995232","9","Post","image39.jpg","Classical_1.mp3","Image"
"5f503a5aaf6c8c1a78242005","computer","46","629.700000047684","9","Post","image5.jpg","Classical_6.mp3","Image"
"5f503a5aaf6c8c1a78242005","computer","47","1000.70000004768","3","Post","image10.jpg","Classical_18.mp3","Music"
"5f503a5aaf6c8c1a78242005","computer","48","2419.5","2","Post","image3.jpg","Cut_jazz_1.mp3","Music"
"5f503a5aaf6c8c1a78242005","computer","49","2432.79999995232","2","Post","image33.jpg","Cut_jazz_16.mp3","Image"
"5f503a5aaf6c8c1a78242005","computer","50","2301.5","5","Post","image39.jpg","Classical_2.mp3","Both"
"5f503a5aaf6c8c1a78242005","computer","51","1123.20000004768","2","Post","image35.jpg","Cut_jazz_14.mp3","Both"
"5f503a5aaf6c8c1a78242005","computer","52","829.899999976158","6","Post","image20.jpg","Cut_jazz_1.mp3","Both"
"5f503a5aaf6c8c1a78242005","computer","53","701.100000023842","3","Post","image17.jpg","Cut_jazz_5.mp3","Both"
"5f503a5aaf6c8c1a78242005","computer","54","1965.69999992847","3","Post","image15.jpg","Cut_jazz_10.mp3","Music"
"5f503a5aaf6c8c1a78242005","computer","55","733.399999976158","1","Post","image4.jpg","Classical_2.mp3","Music"
"5f503a5aaf6c8c1a78242005","computer","56","1882","2","Post","image10.jpg","Classical_15.mp3","Image"
"5f503a5aaf6c8c1a78242005","computer","57","1583","1","Post","image47.jpg","Classical_6.mp3","Music"
"5f503a5aaf6c8c1a78242005","computer","4","1660.79999995232","2","Pre","image52.jpg","Cut_jazz_1.mp3","Music"
"5f503a5aaf6c8c1a78242005","computer","5","940.299999952316","9","Pre","image2.jpg","Classical_17.mp3","Image"
"5f503a5aaf6c8c1a78242005","computer","6","2122.10000002384","6","Pre","image5.jpg","Cut_jazz_1.mp3","Both"
"5f503a5aaf6c8c1a78242005","computer","7","1840.20000004768","5","Pre","image15.jpg","Classical_4.mp3","Music"
"5f503a5aaf6c8c1a78242005","computer","8","3334","9","Pre","image35.jpg","Classical_7.mp3","Music"
"5f503a5aaf6c8c1a78242005","computer","9","2384.80000007153","5","Pre","image2.jpg","Classical_15.mp3","Music"
"5f503a5aaf6c8c1a78242005","computer","10","1151.90000009537","1","Pre","image15.jpg","Classical_1.mp3","Image"
"5f503a5aaf6c8c1a78242005","computer","11","1599.10000002384","7","Pre","image39.jpg","Cut_jazz_16.mp3","Both"
"5f503a5aaf6c8c1a78242005","computer","12","811.899999976158","9","Pre","image20.jpg","Classical_15.mp3","Image"
"5f503a5aaf6c8c1a78242005","computer","13","1500.90000009537","5","Pre","image4.jpg","Cut_jazz_16.mp3","Music"
"5f503a5aaf6c8c1a78242005","computer","14","968.700000047684","3","Pre","image47.jpg","Cut_jazz_2.mp3","Both"
"5f503a5aaf6c8c1a78242005","computer","15","1506.10000002384","4","Pre","image20.jpg","Classical_18.mp3","Music"
"5f503a5aaf6c8c1a78242005","computer","16","1367.5","5","Pre","image47.jpg","Classical_19.mp3","Music"
"5f503a5aaf6c8c1a78242005","computer","17","1797.89999997616","5","Pre","image10.jpg","Cut_jazz_7.mp3","Both"
"5f503a5aaf6c8c1a78242005","computer","18","1170.79999995232","9","Pre","image5.jpg","Classical_19.mp3","Image"
"5f503a5aaf6c8c1a78242005","computer","19","1274.10000002384","2","Pre","image4.jpg","Cut_jazz_14.mp3","Both"
"5f503a5aaf6c8c1a78242005","computer","20","803","9","Pre","image14.jpg","Classical_2.mp3","Image"
"5f503a5aaf6c8c1a78242005","computer","21","1408.5","1","Pre","image1.jpg","Cut_jazz_10.mp3","Both"
"5f503a5aaf6c8c1a78242005","computer","22","2173.59999990463","8","Pre","image39.jpg","Cut_jazz_19.mp3","Music"
"5f503a5aaf6c8c1a78242005","computer","23","739.199999928474","1","Pre","image35.jpg","Classical_8.mp3","Image"
"5f503a5aaf6c8c1a78242005","computer","24","841.100000023842","9","Pre","image39.jpg","Cut_jazz_14.mp3","Image"
"5f503a5aaf6c8c1a78242005","computer","25","1402.89999997616","1","Pre","image17.jpg","Classical_2.mp3","Music"
"5f503a5aaf6c8c1a78242005","computer","26","742.299999952316","6","Pre","image12.jpg","Cut_jazz_10.mp3","Image"
"5f503a5aaf6c8c1a78242005","computer","27","2165.89999997616","6","Pre","image52.jpg","Classical_19.mp3","Both"
"5f503a5aaf6c8c1a78242005","computer","28","1094.5","2","Pre","image10.jpg","Cut_jazz_5.mp3","Image"
"5f503a5aaf6c8c1a78242005","computer","29","821.600000023842","2","Pre","image36.jpg","Cut_jazz_19.mp3","Both"
"5f503a5aaf6c8c1a78242005","computer","30","636.799999952316","1","Pre","image33.jpg","Classical_7.mp3","Image"
"5f503a5aaf6c8c1a78242005","computer","31","1099","1","Pre","image1.jpg","Cut_jazz_7.mp3","Image"
"5f503a5aaf6c8c1a78242005","computer","32","901.600000023842","9","Pre","image17.jpg","Classical_1.mp3","Both"
"5f503a5aaf6c8c1a78242005","computer","33","1191.10000002384","6","Pre","image20.jpg","Classical_17.mp3","Both"
"5f503a5aaf6c8c1a78242005","computer","34","582.600000023842","1","Pre","image34.jpg","Classical_6.mp3","Image"
"5f503a5aaf6c8c1a78242005","computer","35","1018","1","Pre","image15.jpg","Classical_2.mp3","Both"
"5f503a5aaf6c8c1a78242005","computer","36","994.899999976158","1","Pre","image33.jpg","Classical_6.mp3","Music"
"5f503a5aaf6c8c1a78242005","computer","37","1080.5","2","Pre","image12.jpg","Cut_jazz_5.mp3","Both"
"5f503a5aaf6c8c1a78242005","computer","38","860.300000071526","1","Pre","image47.jpg","Cut_jazz_1.mp3","Image"
"5f503a5aaf6c8c1a78242005","computer","39","744.100000023842","9","Pre","image14.jpg","Classical_1.mp3","Music"
"5f503a5aaf6c8c1a78242005","computer","40","828.099999904633","1","Pre","image35.jpg","Classical_6.mp3","Both"
"5f503a5aaf6c8c1a78242005","computer","41","1329.29999995232","7","Pre","image3.jpg","Classical_18.mp3","Image"
"5f503a5aaf6c8c1a78242005","computer","42","1405.10000002384","7","Pre","image14.jpg","Classical_4.mp3","Both"
"5f503a5aaf6c8c1a78242005","computer","43","819.799999952316","9","Pre","image52.jpg","Cut_jazz_2.mp3","Image"
"5f503a5aaf6c8c1a78242005","computer","44","1152.29999995232","5","Pre","image2.jpg","Classical_18.mp3","Both"
"5f503a5aaf6c8c1a78242005","computer","45","1078.89999997616","1","Pre","image3.jpg","Classical_17.mp3","Music"
"5f503a5aaf6c8c1a78242005","computer","46","1184.80000007153","8","Pre","image17.jpg","Classical_4.mp3","Image"
"5f503a5aaf6c8c1a78242005","computer","47","1322.89999997616","5","Pre","image34.jpg","Classical_8.mp3","Music"
"5f503a5aaf6c8c1a78242005","computer","48","1740.29999995232","7","Pre","image3.jpg","Classical_15.mp3","Both"
"5f503a5aaf6c8c1a78242005","computer","49","883.300000071526","2","Pre","image33.jpg","Classical_8.mp3","Both"
"5f503a5aaf6c8c1a78242005","computer","50","1283.5","5","Pre","image12.jpg","Cut_jazz_7.mp3","Music"
"5f503a5aaf6c8c1a78242005","computer","51","1173.60000002384","1","Pre","image4.jpg","Cut_jazz_19.mp3","Image"
"5f503a5aaf6c8c1a78242005","computer","52","1180.19999992847","2","Pre","image34.jpg","Classical_7.mp3","Both"
"5f503a5aaf6c8c1a78242005","computer","53","2942.69999992847","8","Pre","image5.jpg","Cut_jazz_2.mp3","Music"
"5f503a5aaf6c8c1a78242005","computer","54","1110.39999997616","2","Pre","image36.jpg","Cut_jazz_16.mp3","Image"
"5f503a5aaf6c8c1a78242005","computer","55","884","1","Pre","image1.jpg","Cut_jazz_5.mp3","Music"
"5f503a5aaf6c8c1a78242005","computer","56","1128.80000007153","3","Pre","image36.jpg","Cut_jazz_14.mp3","Music"
"5f503a5aaf6c8c1a78242005","computer","57","1284.5","1","Pre","image10.jpg","Cut_jazz_10.mp3","Music"
"5b287b1a8ecf3f000161bc22","computer","4","3333","2","Pre","image1.jpg","Classical_2.mp3","Image"
"5b287b1a8ecf3f000161bc22","computer","5","2724","6","Pre","image47.jpg","Cut_jazz_7.mp3","Image"
"5b287b1a8ecf3f000161bc22","computer","6","1119","2","Pre","image3.jpg","Classical_6.mp3","Both"
"5b287b1a8ecf3f000161bc22","computer","7","1409","1","Pre","image33.jpg","Cut_jazz_1.mp3","Image"
"5b287b1a8ecf3f000161bc22","computer","8","1807","3","Pre","image39.jpg","Cut_jazz_16.mp3","Both"
"5b287b1a8ecf3f000161bc22","computer","9","1193","1","Pre","image15.jpg","Classical_17.mp3","Both"
"5b287b1a8ecf3f000161bc22","computer","10","1150","5","Pre","image12.jpg","Classical_4.mp3","Image"
"5b287b1a8ecf3f000161bc22","computer","11","1092","4","Pre","image17.jpg","Classical_15.mp3","Both"
"5b287b1a8ecf3f000161bc22","computer","12","1345","3","Pre","image47.jpg","Cut_jazz_5.mp3","Music"
"5b287b1a8ecf3f000161bc22","computer","13","1887","6","Pre","image36.jpg","Cut_jazz_14.mp3","Music"
"5b287b1a8ecf3f000161bc22","computer","14","2889","3","Pre","image15.jpg","Classical_18.mp3","Music"
"5b287b1a8ecf3f000161bc22","computer","15","1470","5","Pre","image14.jpg","Classical_17.mp3","Image"
"5b287b1a8ecf3f000161bc22","computer","16","1595","2","Pre","image35.jpg","Cut_jazz_2.mp3","Image"
"5b287b1a8ecf3f000161bc22","computer","17","2917","3","Pre","image2.jpg","Classical_7.mp3","Image"
"5b287b1a8ecf3f000161bc22","computer","18","1658","5","Pre","image20.jpg","Classical_6.mp3","Image"
"5b287b1a8ecf3f000161bc22","computer","19","1494","5","Pre","image5.jpg","Cut_jazz_7.mp3","Both"
"5b287b1a8ecf3f000161bc22","computer","20","1395","5","Pre","image20.jpg","Classical_7.mp3","Both"
"5b287b1a8ecf3f000161bc22","computer","21","1361","1","Pre","image33.jpg","Cut_jazz_2.mp3","Both"
"5b287b1a8ecf3f000161bc22","computer","22","1435","5","Pre","image12.jpg","Classical_1.mp3","Both"
"5b287b1a8ecf3f000161bc22","computer","23","1287","3","Pre","image33.jpg","Classical_19.mp3","Music"
"5b287b1a8ecf3f000161bc22","computer","24","1558","1","Pre","image39.jpg","Cut_jazz_14.mp3","Image"
"5b287b1a8ecf3f000161bc22","computer","25","1543","1","Pre","image5.jpg","Cut_jazz_10.mp3","Music"
"5b287b1a8ecf3f000161bc22","computer","26","1958","2","Pre","image2.jpg","Classical_6.mp3","Music"
"5b287b1a8ecf3f000161bc22","computer","27","2356","6","Pre","image3.jpg","Classical_8.mp3","Image"
"5b287b1a8ecf3f000161bc22","computer","28","3805","1","Pre","image36.jpg","Cut_jazz_19.mp3","Both"
"5b287b1a8ecf3f000161bc22","computer","29","1428","5","Pre","image17.jpg","Classical_18.mp3","Image"
"5b287b1a8ecf3f000161bc22","computer","30","1647","1","Pre","image52.jpg","Cut_jazz_5.mp3","Both"
"5b287b1a8ecf3f000161bc22","computer","31","894","1","Pre","image35.jpg","Classical_19.mp3","Both"
"5b287b1a8ecf3f000161bc22","computer","32","926","1","Pre","image10.jpg","Classical_2.mp3","Both"
"5b287b1a8ecf3f000161bc22","computer","33","1479","4","Pre","image4.jpg","Cut_jazz_16.mp3","Music"
"5b287b1a8ecf3f000161bc22","computer","34","520","4","Pre","image5.jpg","Cut_jazz_5.mp3","Image"
"5b287b1a8ecf3f000161bc22","computer","35","1216","1","Pre","image4.jpg","Cut_jazz_19.mp3","Image"
"5b287b1a8ecf3f000161bc22","computer","36","1314","3","Pre","image1.jpg","Classical_1.mp3","Music"
"5b287b1a8ecf3f000161bc22","computer","37","1569","1","Pre","image34.jpg","Classical_19.mp3","Image"
"5b287b1a8ecf3f000161bc22","computer","38","1135","2","Pre","image52.jpg","Cut_jazz_10.mp3","Image"
"5b287b1a8ecf3f000161bc22","computer","39","1572","3","Pre","image3.jpg","Classical_7.mp3","Music"
"5b287b1a8ecf3f000161bc22","computer","40","1235","1","Pre","image14.jpg","Classical_15.mp3","Music"
"5b287b1a8ecf3f000161bc22","computer","41","1909","2","Pre","image17.jpg","Classical_17.mp3","Music"
"5b287b1a8ecf3f000161bc22","computer","42","1042","2","Pre","image35.jpg","Cut_jazz_1.mp3","Music"
"5b287b1a8ecf3f000161bc22","computer","43","2147","1","Pre","image10.jpg","Classical_4.mp3","Music"
"5b287b1a8ecf3f000161bc22","computer","44","950","1","Pre","image34.jpg","Cut_jazz_1.mp3","Both"
"5b287b1a8ecf3f000161bc22","computer","45","946","1","Pre","image15.jpg","Classical_15.mp3","Image"
"5b287b1a8ecf3f000161bc22","computer","46","1572","3","Pre","image39.jpg","Cut_jazz_19.mp3","Music"
"5b287b1a8ecf3f000161bc22","computer","47","940","3","Pre","image14.jpg","Classical_18.mp3","Both"
"5b287b1a8ecf3f000161bc22","computer","48","1325","1","Pre","image34.jpg","Cut_jazz_2.mp3","Music"
"5b287b1a8ecf3f000161bc22","computer","49","1683","1","Pre","image2.jpg","Classical_8.mp3","Both"
"5b287b1a8ecf3f000161bc22","computer","50","1614","3","Pre","image4.jpg","Cut_jazz_14.mp3","Both"
"5b287b1a8ecf3f000161bc22","computer","51","1346","2","Pre","image47.jpg","Cut_jazz_10.mp3","Both"
"5b287b1a8ecf3f000161bc22","computer","52","1699","1","Pre","image1.jpg","Classical_4.mp3","Both"
"5b287b1a8ecf3f000161bc22","computer","53","1234","2","Pre","image12.jpg","Classical_2.mp3","Music"
"5b287b1a8ecf3f000161bc22","computer","54","1186","2","Pre","image20.jpg","Classical_8.mp3","Music"
"5b287b1a8ecf3f000161bc22","computer","55","1435","1","Pre","image10.jpg","Classical_1.mp3","Image"
"5b287b1a8ecf3f000161bc22","computer","56","1489","2","Pre","image52.jpg","Cut_jazz_7.mp3","Music"
"5b287b1a8ecf3f000161bc22","computer","57","1349","1","Pre","image36.jpg","Cut_jazz_16.mp3","Image"
"5b287b1a8ecf3f000161bc22","computer","4","1756","3","Post","image39.jpg","Cut_jazz_5.mp3","Image"
"5b287b1a8ecf3f000161bc22","computer","5","1284","6","Post","image15.jpg","Cut_jazz_19.mp3","Music"
"5b287b1a8ecf3f000161bc22","computer","6","1753","3","Post","image20.jpg","Classical_1.mp3","Image"
"5b287b1a8ecf3f000161bc22","computer","7","1593","2","Post","image33.jpg","Classical_19.mp3","Music"
"5b287b1a8ecf3f000161bc22","computer","8","1229","1","Post","image15.jpg","Cut_jazz_16.mp3","Both"
"5b287b1a8ecf3f000161bc22","computer","9","654","1","Post","image33.jpg","Cut_jazz_2.mp3","Both"
"5b287b1a8ecf3f000161bc22","computer","10","1374","2","Post","image20.jpg","Classical_2.mp3","Both"
"5b287b1a8ecf3f000161bc22","computer","11","821","2","Post","image5.jpg","Classical_8.mp3","Music"
"5b287b1a8ecf3f000161bc22","computer","12","1528","4","Post","image3.jpg","Classical_4.mp3","Image"
"5b287b1a8ecf3f000161bc22","computer","13","658","4","Post","image2.jpg","Classical_2.mp3","Image"
"5b287b1a8ecf3f000161bc22","computer","14","1416","2","Post","image1.jpg","Classical_17.mp3","Image"
"5b287b1a8ecf3f000161bc22","computer","15","1404","1","Post","image39.jpg","Cut_jazz_10.mp3","Music"
"5b287b1a8ecf3f000161bc22","computer","16","760","1","Post","image35.jpg","Classical_19.mp3","Both"
"5b287b1a8ecf3f000161bc22","computer","17","821","1","Post","image20.jpg","Classical_4.mp3","Music"
"5b287b1a8ecf3f000161bc22","computer","18","788","1","Post","image3.jpg","Classical_2.mp3","Music"
"5b287b1a8ecf3f000161bc22","computer","19","2842","2","Post","image4.jpg","Cut_jazz_7.mp3","Music"
"5b287b1a8ecf3f000161bc22","computer","20","803","2","Post","image52.jpg","Classical_8.mp3","Image"
"5b287b1a8ecf3f000161bc22","computer","21","1575","1","Post","image34.jpg","Classical_19.mp3","Image"
"5b287b1a8ecf3f000161bc22","computer","22","1121","4","Post","image14.jpg","Cut_jazz_14.mp3","Music"
"5b287b1a8ecf3f000161bc22","computer","23","933","1","Post","image33.jpg","Cut_jazz_1.mp3","Image"
"5b287b1a8ecf3f000161bc22","computer","24","714","1","Post","image52.jpg","Classical_7.mp3","Music"
"5b287b1a8ecf3f000161bc22","computer","25","1163","3","Post","image2.jpg","Classical_1.mp3","Music"
"5b287b1a8ecf3f000161bc22","computer","26","1091","2","Post","image12.jpg","Classical_17.mp3","Music"
"5b287b1a8ecf3f000161bc22","computer","27","1131","1","Post","image10.jpg","Classical_18.mp3","Music"
"5b287b1a8ecf3f000161bc22","computer","28","846","1","Post","image47.jpg","Classical_6.mp3","Music"
"5b287b1a8ecf3f000161bc22","computer","29","925","2","Post","image14.jpg","Cut_jazz_19.mp3","Both"
"5b287b1a8ecf3f000161bc22","computer","30","1665","1","Post","image34.jpg","Cut_jazz_2.mp3","Music"
"5b287b1a8ecf3f000161bc22","computer","31","1043","2","Post","image17.jpg","Cut_jazz_19.mp3","Image"
"5b287b1a8ecf3f000161bc22","computer","32","1812","1","Post","image4.jpg","Cut_jazz_10.mp3","Image"
"5b287b1a8ecf3f000161bc22","computer","33","893","1","Post","image47.jpg","Classical_7.mp3","Image"
"5b287b1a8ecf3f000161bc22","computer","34","620","1","Post","image36.jpg","Cut_jazz_7.mp3","Image"
"5b287b1a8ecf3f000161bc22","computer","35","1157","1","Post","image2.jpg","Classical_4.mp3","Both"
"5b287b1a8ecf3f000161bc22","computer","36","1347","4","Post","image14.jpg","Cut_jazz_16.mp3","Image"
"5b287b1a8ecf3f000161bc22","computer","37","1132","1","Post","image15.jpg","Cut_jazz_14.mp3","Image"
"5b287b1a8ecf3f000161bc22","computer","38","1299","2","Post","image12.jpg","Classical_15.mp3","Both"
"5b287b1a8ecf3f000161bc22","computer","39","2380","2","Post","image1.jpg","Classical_18.mp3","Both"
"5b287b1a8ecf3f000161bc22","computer","40","1026","1","Post","image36.jpg","Cut_jazz_5.mp3","Music"
"5b287b1a8ecf3f000161bc22","computer","41","2048","3","Post","image52.jpg","Classical_6.mp3","Both"
"5b287b1a8ecf3f000161bc22","computer","42","1431","1","Post","image10.jpg","Classical_15.mp3","Image"
"5b287b1a8ecf3f000161bc22","computer","43","690","1","Post","image34.jpg","Cut_jazz_1.mp3","Both"
"5b287b1a8ecf3f000161bc22","computer","44","677","1","Post","image35.jpg","Cut_jazz_2.mp3","Image"
"5b287b1a8ecf3f000161bc22","computer","45","702","1","Post","image39.jpg","Cut_jazz_7.mp3","Both"
"5b287b1a8ecf3f000161bc22","computer","46","2064","1","Post","image35.jpg","Cut_jazz_1.mp3","Music"
"5b287b1a8ecf3f000161bc22","computer","47","969","2","Post","image5.jpg","Classical_7.mp3","Both"
"5b287b1a8ecf3f000161bc22","computer","48","1632","5","Post","image3.jpg","Classical_1.mp3","Both"
"5b287b1a8ecf3f000161bc22","computer","49","726","5","Post","image17.jpg","Cut_jazz_14.mp3","Both"
"5b287b1a8ecf3f000161bc22","computer","50","921","5","Post","image5.jpg","Classical_6.mp3","Image"
"5b287b1a8ecf3f000161bc22","computer","51","1944","1","Post","image1.jpg","Classical_15.mp3","Music"
"5b287b1a8ecf3f000161bc22","computer","52","806","1","Post","image10.jpg","Classical_17.mp3","Both"
"5b287b1a8ecf3f000161bc22","computer","53","1596","3","Post","image12.jpg","Classical_18.mp3","Image"
"5b287b1a8ecf3f000161bc22","computer","54","964","1","Post","image4.jpg","Cut_jazz_5.mp3","Both"
"5b287b1a8ecf3f000161bc22","computer","55","662","1","Post","image36.jpg","Cut_jazz_10.mp3","Both"
"5b287b1a8ecf3f000161bc22","computer","56","1332","1","Post","image47.jpg","Classical_8.mp3","Both"
"5b287b1a8ecf3f000161bc22","computer","57","603","1","Post","image17.jpg","Cut_jazz_16.mp3","Music"
"606e3ddf19540080228e3a0c","computer","4","2816.59999999776","4","Pre","image1.jpg","Classical_2.mp3","Image"
"606e3ddf19540080228e3a0c","computer","5","1248.90000000224","3","Pre","image47.jpg","Cut_jazz_7.mp3","Image"
"606e3ddf19540080228e3a0c","computer","6","1429.10000000149","6","Pre","image3.jpg","Classical_6.mp3","Both"
"606e3ddf19540080228e3a0c","computer","7","1349.69999999925","1","Pre","image33.jpg","Cut_jazz_1.mp3","Image"
"606e3ddf19540080228e3a0c","computer","8","1362.5","7","Pre","image39.jpg","Cut_jazz_16.mp3","Both"
"606e3ddf19540080228e3a0c","computer","9","1153.69999999925","6","Pre","image15.jpg","Classical_17.mp3","Both"
"606e3ddf19540080228e3a0c","computer","10","1220","7","Pre","image12.jpg","Classical_4.mp3","Image"
"606e3ddf19540080228e3a0c","computer","11","1330.80000000075","6","Pre","image17.jpg","Classical_15.mp3","Both"
"606e3ddf19540080228e3a0c","computer","12","1469.19999999925","6","Pre","image47.jpg","Cut_jazz_5.mp3","Music"
"606e3ddf19540080228e3a0c","computer","13","1426.30000000075","5","Pre","image36.jpg","Cut_jazz_14.mp3","Music"
"606e3ddf19540080228e3a0c","computer","14","1279.20000000298","6","Pre","image15.jpg","Classical_18.mp3","Music"
"606e3ddf19540080228e3a0c","computer","15","1493.39999999851","7","Pre","image14.jpg","Classical_17.mp3","Image"
"606e3ddf19540080228e3a0c","computer","16","838","1","Pre","image35.jpg","Cut_jazz_2.mp3","Image"
"606e3ddf19540080228e3a0c","computer","17","1790.90000000224","5","Pre","image2.jpg","Classical_7.mp3","Image"
"606e3ddf19540080228e3a0c","computer","18","1650.29999999702","6","Pre","image20.jpg","Classical_6.mp3","Image"
"606e3ddf19540080228e3a0c","computer","19","1230.60000000149","4","Pre","image5.jpg","Cut_jazz_7.mp3","Both"
"606e3ddf19540080228e3a0c","computer","20","952.39999999851","5","Pre","image20.jpg","Classical_7.mp3","Both"
"606e3ddf19540080228e3a0c","computer","21","1018.90000000224","1","Pre","image33.jpg","Cut_jazz_2.mp3","Both"
"606e3ddf19540080228e3a0c","computer","22","1095.09999999776","7","Pre","image12.jpg","Classical_1.mp3","Both"
"606e3ddf19540080228e3a0c","computer","23","1622.19999999925","7","Pre","image33.jpg","Classical_19.mp3","Music"
"606e3ddf19540080228e3a0c","computer","24","1276.60000000149","8","Pre","image39.jpg","Cut_jazz_14.mp3","Image"
"606e3ddf19540080228e3a0c","computer","25","1670","6","Pre","image5.jpg","Cut_jazz_10.mp3","Music"
"606e3ddf19540080228e3a0c","computer","26","1446.40000000224","4","Pre","image2.jpg","Classical_6.mp3","Music"
"606e3ddf19540080228e3a0c","computer","27","1615.69999999925","7","Pre","image3.jpg","Classical_8.mp3","Image"
"606e3ddf19540080228e3a0c","computer","28","2461","7","Pre","image36.jpg","Cut_jazz_19.mp3","Both"
"606e3ddf19540080228e3a0c","computer","29","1334","8","Pre","image17.jpg","Classical_18.mp3","Image"
"606e3ddf19540080228e3a0c","computer","30","1207.30000000075","6","Pre","image52.jpg","Cut_jazz_5.mp3","Both"
"606e3ddf19540080228e3a0c","computer","31","856.70000000298","2","Pre","image35.jpg","Classical_19.mp3","Both"
"606e3ddf19540080228e3a0c","computer","32","1470.69999999925","6","Pre","image10.jpg","Classical_2.mp3","Both"
"606e3ddf19540080228e3a0c","computer","33","833.199999999255","6","Pre","image4.jpg","Cut_jazz_16.mp3","Music"
"606e3ddf19540080228e3a0c","computer","34","1099.69999999925","5","Pre","image5.jpg","Cut_jazz_5.mp3","Image"
"606e3ddf19540080228e3a0c","computer","35","889","5","Pre","image4.jpg","Cut_jazz_19.mp3","Image"
"606e3ddf19540080228e3a0c","computer","36","1175.10000000149","6","Pre","image1.jpg","Classical_1.mp3","Music"
"606e3ddf19540080228e3a0c","computer","37","948.60000000149","1","Pre","image34.jpg","Classical_19.mp3","Image"
"606e3ddf19540080228e3a0c","computer","38","1232.10000000149","5","Pre","image52.jpg","Cut_jazz_10.mp3","Image"
"606e3ddf19540080228e3a0c","computer","39","1213","6","Pre","image3.jpg","Classical_7.mp3","Music"
"606e3ddf19540080228e3a0c","computer","40","1591.90000000224","5","Pre","image14.jpg","Classical_15.mp3","Music"
"606e3ddf19540080228e3a0c","computer","41","806.199999999255","6","Pre","image17.jpg","Classical_17.mp3","Music"
"606e3ddf19540080228e3a0c","computer","42","829.800000000745","6","Pre","image35.jpg","Cut_jazz_1.mp3","Music"
"606e3ddf19540080228e3a0c","computer","43","1120.30000000075","5","Pre","image10.jpg","Classical_4.mp3","Music"
"606e3ddf19540080228e3a0c","computer","44","2297.89999999851","2","Pre","image34.jpg","Cut_jazz_1.mp3","Both"
"606e3ddf19540080228e3a0c","computer","45","1366","5","Pre","image15.jpg","Classical_15.mp3","Image"
"606e3ddf19540080228e3a0c","computer","46","1291.30000000075","5","Pre","image39.jpg","Cut_jazz_19.mp3","Music"
"606e3ddf19540080228e3a0c","computer","47","1508.19999999925","7","Pre","image14.jpg","Classical_18.mp3","Both"
"606e3ddf19540080228e3a0c","computer","48","1291.89999999851","6","Pre","image34.jpg","Cut_jazz_2.mp3","Music"
"606e3ddf19540080228e3a0c","computer","49","1563.89999999851","7","Pre","image2.jpg","Classical_8.mp3","Both"
"606e3ddf19540080228e3a0c","computer","50","1815.5","5","Pre","image4.jpg","Cut_jazz_14.mp3","Both"
"606e3ddf19540080228e3a0c","computer","51","1146.5","3","Pre","image47.jpg","Cut_jazz_10.mp3","Both"
"606e3ddf19540080228e3a0c","computer","52","1275.30000000075","5","Pre","image1.jpg","Classical_4.mp3","Both"
"606e3ddf19540080228e3a0c","computer","53","1788.79999999702","5","Pre","image12.jpg","Classical_2.mp3","Music"
"606e3ddf19540080228e3a0c","computer","54","1822.30000000075","6","Pre","image20.jpg","Classical_8.mp3","Music"
"606e3ddf19540080228e3a0c","computer","55","1664","7","Pre","image10.jpg","Classical_1.mp3","Image"
"606e3ddf19540080228e3a0c","computer","56","1066.5","6","Pre","image52.jpg","Cut_jazz_7.mp3","Music"
"606e3ddf19540080228e3a0c","computer","57","1349.30000000075","8","Pre","image36.jpg","Cut_jazz_16.mp3","Image"
"606e3ddf19540080228e3a0c","computer","4","1331","8","Post","image39.jpg","Cut_jazz_5.mp3","Image"
"606e3ddf19540080228e3a0c","computer","5","1387.90000000224","6","Post","image15.jpg","Cut_jazz_19.mp3","Music"
"606e3ddf19540080228e3a0c","computer","6","780.699999999255","5","Post","image20.jpg","Classical_1.mp3","Image"
"606e3ddf19540080228e3a0c","computer","7","1216.19999999925","6","Post","image33.jpg","Classical_19.mp3","Music"
"606e3ddf19540080228e3a0c","computer","8","1516.89999999851","6","Post","image15.jpg","Cut_jazz_16.mp3","Both"
"606e3ddf19540080228e3a0c","computer","9","2159.19999999925","1","Post","image33.jpg","Cut_jazz_2.mp3","Both"
"606e3ddf19540080228e3a0c","computer","10","794.699999999255","5","Post","image20.jpg","Classical_2.mp3","Both"
"606e3ddf19540080228e3a0c","computer","11","906.10000000149","5","Post","image5.jpg","Classical_8.mp3","Music"
"606e3ddf19540080228e3a0c","computer","12","999.60000000149","6","Post","image3.jpg","Classical_4.mp3","Image"
"606e3ddf19540080228e3a0c","computer","13","486.699999999255","6","Post","image2.jpg","Classical_2.mp3","Image"
"606e3ddf19540080228e3a0c","computer","14","410.900000002235","6","Post","image1.jpg","Classical_17.mp3","Image"
"606e3ddf19540080228e3a0c","computer","15","511.099999997765","6","Post","image39.jpg","Cut_jazz_10.mp3","Music"
"606e3ddf19540080228e3a0c","computer","16","851","3","Post","image35.jpg","Classical_19.mp3","Both"
"606e3ddf19540080228e3a0c","computer","17","1475.60000000149","5","Post","image20.jpg","Classical_4.mp3","Music"
"606e3ddf19540080228e3a0c","computer","18","489.10000000149","5","Post","image3.jpg","Classical_2.mp3","Music"
"606e3ddf19540080228e3a0c","computer","19","482.400000002235","5","Post","image4.jpg","Cut_jazz_7.mp3","Music"
"606e3ddf19540080228e3a0c","computer","20","999.39999999851","5","Post","image52.jpg","Classical_8.mp3","Image"
"606e3ddf19540080228e3a0c","computer","21","870.5","1","Post","image34.jpg","Classical_19.mp3","Image"
"606e3ddf19540080228e3a0c","computer","22","1088.10000000149","4","Post","image14.jpg","Cut_jazz_14.mp3","Music"
"606e3ddf19540080228e3a0c","computer","23","775.60000000149","1","Post","image33.jpg","Cut_jazz_1.mp3","Image"
"606e3ddf19540080228e3a0c","computer","24","1375","5","Post","image52.jpg","Classical_7.mp3","Music"
"606e3ddf19540080228e3a0c","computer","25","424.699999999255","5","Post","image2.jpg","Classical_1.mp3","Music"
"606e3ddf19540080228e3a0c","computer","26","423.60000000149","5","Post","image12.jpg","Classical_17.mp3","Music"
"606e3ddf19540080228e3a0c","computer","27","1153.10000000149","6","Post","image10.jpg","Classical_18.mp3","Music"
"606e3ddf19540080228e3a0c","computer","28","1652.5","4","Post","image47.jpg","Classical_6.mp3","Music"
"606e3ddf19540080228e3a0c","computer","29","646.699999999255","5","Post","image14.jpg","Cut_jazz_19.mp3","Both"
"606e3ddf19540080228e3a0c","computer","30","913.199999999255","4","Post","image34.jpg","Cut_jazz_2.mp3","Music"
"606e3ddf19540080228e3a0c","computer","31","712.300000000745","7","Post","image17.jpg","Cut_jazz_19.mp3","Image"
"606e3ddf19540080228e3a0c","computer","32","1577","5","Post","image4.jpg","Cut_jazz_10.mp3","Image"
"606e3ddf19540080228e3a0c","computer","33","718.400000002235","3","Post","image47.jpg","Classical_7.mp3","Image"
"606e3ddf19540080228e3a0c","computer","34","877.10000000149","7","Post","image36.jpg","Cut_jazz_7.mp3","Image"
"606e3ddf19540080228e3a0c","computer","35","1415.5","5","Post","image2.jpg","Classical_4.mp3","Both"
"606e3ddf19540080228e3a0c","computer","36","544.89999999851","6","Post","image14.jpg","Cut_jazz_16.mp3","Image"
"606e3ddf19540080228e3a0c","computer","37","952.099999997765","5","Post","image15.jpg","Cut_jazz_14.mp3","Image"
"606e3ddf19540080228e3a0c","computer","38","1553.09999999776","8","Post","image12.jpg","Classical_15.mp3","Both"
"606e3ddf19540080228e3a0c","computer","39","928.60000000149","7","Post","image1.jpg","Classical_18.mp3","Both"
"606e3ddf19540080228e3a0c","computer","40","1423","6","Post","image36.jpg","Cut_jazz_5.mp3","Music"
"606e3ddf19540080228e3a0c","computer","41","795","5","Post","image52.jpg","Classical_6.mp3","Both"
"606e3ddf19540080228e3a0c","computer","42","649.199999999255","7","Post","image10.jpg","Classical_15.mp3","Image"
"606e3ddf19540080228e3a0c","computer","43","990","2","Post","image34.jpg","Cut_jazz_1.mp3","Both"
"606e3ddf19540080228e3a0c","computer","44","549.400000002235","1","Post","image35.jpg","Cut_jazz_2.mp3","Image"
"606e3ddf19540080228e3a0c","computer","45","930.60000000149","6","Post","image39.jpg","Cut_jazz_7.mp3","Both"
"606e3ddf19540080228e3a0c","computer","46","1331.40000000224","6","Post","image35.jpg","Cut_jazz_1.mp3","Music"
"606e3ddf19540080228e3a0c","computer","47","737","5","Post","image5.jpg","Classical_7.mp3","Both"
"606e3ddf19540080228e3a0c","computer","48","618.300000000745","7","Post","image3.jpg","Classical_1.mp3","Both"
"606e3ddf19540080228e3a0c","computer","49","430.10000000149","7","Post","image17.jpg","Cut_jazz_14.mp3","Both"
"606e3ddf19540080228e3a0c","computer","50","764.400000002235","5","Post","image5.jpg","Classical_6.mp3","Image"
"606e3ddf19540080228e3a0c","computer","51","427.79999999702","5","Post","image1.jpg","Classical_15.mp3","Music"
"606e3ddf19540080228e3a0c","computer","52","834.70000000298","6","Post","image10.jpg","Classical_17.mp3","Both"
"606e3ddf19540080228e3a0c","computer","53","600.900000002235","7","Post","image12.jpg","Classical_18.mp3","Image"
"606e3ddf19540080228e3a0c","computer","54","1143.60000000149","6","Post","image4.jpg","Cut_jazz_5.mp3","Both"
"606e3ddf19540080228e3a0c","computer","55","561.5","6","Post","image36.jpg","Cut_jazz_10.mp3","Both"
"606e3ddf19540080228e3a0c","computer","56","1088.60000000149","5","Post","image47.jpg","Classical_8.mp3","Both"
"606e3ddf19540080228e3a0c","computer","57","1168.5","4","Post","image17.jpg","Cut_jazz_16.mp3","Music"
"5f963718a844b719781e9e85","computer","4","2555","3","Post","image47.jpg","Cut_jazz_10.mp3","Both"
"5f963718a844b719781e9e85","computer","5","2193","3","Post","image12.jpg","Cut_jazz_16.mp3","Music"
"5f963718a844b719781e9e85","computer","6","1083","6","Post","image36.jpg","Classical_4.mp3","Both"
"5f963718a844b719781e9e85","computer","7","2354","4","Post","image17.jpg","Cut_jazz_2.mp3","Image"
"5f963718a844b719781e9e85","computer","8","2534","2","Post","image39.jpg","Classical_1.mp3","Image"
"5f963718a844b719781e9e85","computer","9","1887","3","Post","image10.jpg","Cut_jazz_19.mp3","Music"
"5f963718a844b719781e9e85","computer","10","1337","2","Post","image15.jpg","Classical_19.mp3","Image"
"5f963718a844b719781e9e85","computer","11","835","2","Post","image10.jpg","Cut_jazz_16.mp3","Both"
"5f963718a844b719781e9e85","computer","12","1749","4","Post","image3.jpg","Classical_7.mp3","Music"
"5f963718a844b719781e9e85","computer","13","1160","3","Post","image4.jpg","Classical_4.mp3","Image"
"5f963718a844b719781e9e85","computer","14","918","2","Post","image12.jpg","Cut_jazz_14.mp3","Both"
"5f963718a844b719781e9e85","computer","15","767","5","Post","image14.jpg","Cut_jazz_2.mp3","Both"
"5f963718a844b719781e9e85","computer","16","991","7","Post","image39.jpg","Classical_2.mp3","Both"
"5f963718a844b719781e9e85","computer","17","1054","2","Post","image1.jpg","Cut_jazz_19.mp3","Both"
"5f963718a844b719781e9e85","computer","18","1082","6","Post","image33.jpg","Classical_18.mp3","Both"
"5f963718a844b719781e9e85","computer","19","887","4","Post","image20.jpg","Classical_8.mp3","Music"
"5f963718a844b719781e9e85","computer","20","1067","5","Post","image2.jpg","Classical_6.mp3","Music"
"5f963718a844b719781e9e85","computer","21","781","6","Post","image33.jpg","Classical_17.mp3","Image"
"5f963718a844b719781e9e85","computer","22","803","2","Post","image12.jpg","Cut_jazz_19.mp3","Image"
"5f963718a844b719781e9e85","computer","23","903","3","Post","image10.jpg","Cut_jazz_14.mp3","Image"
"5f963718a844b719781e9e85","computer","24","882","6","Post","image36.jpg","Classical_1.mp3","Music"
"5f963718a844b719781e9e85","computer","25","919","7","Post","image14.jpg","Classical_19.mp3","Music"
"5f963718a844b719781e9e85","computer","26","1749","3","Post","image47.jpg","Cut_jazz_7.mp3","Image"
"5f963718a844b719781e9e85","computer","27","723","7","Post","image35.jpg","Classical_15.mp3","Both"
"5f963718a844b719781e9e85","computer","28","876","4","Post","image3.jpg","Classical_8.mp3","Image"
"5f963718a844b719781e9e85","computer","29","1483","4","Post","image15.jpg","Cut_jazz_1.mp3","Both"
"5f963718a844b719781e9e85","computer","30","906","3","Post","image52.jpg","Cut_jazz_5.mp3","Both"
"5f963718a844b719781e9e85","computer","31","1809","3","Post","image15.jpg","Cut_jazz_2.mp3","Music"
"5f963718a844b719781e9e85","computer","32","1135","5","Post","image5.jpg","Cut_jazz_5.mp3","Image"
"5f963718a844b719781e9e85","computer","33","599","6","Post","image20.jpg","Classical_6.mp3","Image"
"5f963718a844b719781e9e85","computer","34","650","6","Post","image39.jpg","Classical_4.mp3","Music"
"5f963718a844b719781e9e85","computer","35","948","3","Post","image1.jpg","Cut_jazz_14.mp3","Music"
"5f963718a844b719781e9e85","computer","36","587","5","Post","image2.jpg","Classical_8.mp3","Both"
"5f963718a844b719781e9e85","computer","37","693","5","Post","image5.jpg","Cut_jazz_7.mp3","Both"
"5f963718a844b719781e9e85","computer","38","677","6","Post","image3.jpg","Classical_6.mp3","Both"
"5f963718a844b719781e9e85","computer","39","1032","4","Post","image52.jpg","Cut_jazz_10.mp3","Image"
"5f963718a844b719781e9e85","computer","40","414","6","Post","image35.jpg","Classical_17.mp3","Music"
"5f963718a844b719781e9e85","computer","41","1187","5","Post","image4.jpg","Classical_2.mp3","Music"
"5f963718a844b719781e9e85","computer","42","735","7","Post","image17.jpg","Classical_19.mp3","Both"
"5f963718a844b719781e9e85","computer","43","753","5","Post","image34.jpg","Classical_15.mp3","Image"
"5f963718a844b719781e9e85","computer","44","838","3","Post","image1.jpg","Cut_jazz_16.mp3","Image"
"5f963718a844b719781e9e85","computer","45","414","4","Post","image20.jpg","Classical_7.mp3","Both"
"5f963718a844b719781e9e85","computer","46","695","3","Post","image47.jpg","Cut_jazz_5.mp3","Music"
"5f963718a844b719781e9e85","computer","47","709","6","Post","image35.jpg","Classical_18.mp3","Image"
"5f963718a844b719781e9e85","computer","48","292","6","Post","image36.jpg","Classical_2.mp3","Image"
"5f963718a844b719781e9e85","computer","49","572","6","Post","image17.jpg","Cut_jazz_1.mp3","Music"
"5f963718a844b719781e9e85","computer","50","578","3","Post","image5.jpg","Cut_jazz_10.mp3","Music"
"5f963718a844b719781e9e85","computer","51","1250","5","Post","image2.jpg","Classical_7.mp3","Image"
"5f963718a844b719781e9e85","computer","52","775","4","Post","image4.jpg","Classical_1.mp3","Both"
"5f963718a844b719781e9e85","computer","53","715","3","Post","image52.jpg","Cut_jazz_7.mp3","Music"
"5f963718a844b719781e9e85","computer","54","1382","5","Post","image14.jpg","Cut_jazz_1.mp3","Image"
"5f963718a844b719781e9e85","computer","55","677","6","Post","image33.jpg","Classical_15.mp3","Music"
"5f963718a844b719781e9e85","computer","56","382","6","Post","image34.jpg","Classical_17.mp3","Both"
"5f963718a844b719781e9e85","computer","57","611","5","Post","image34.jpg","Classical_18.mp3","Music"
"5f963718a844b719781e9e85","computer","4","1487","3","Pre","image47.jpg","Classical_1.mp3","Music"
"5f963718a844b719781e9e85","computer","5","1137","2","Pre","image10.jpg","Cut_jazz_7.mp3","Both"
"5f963718a844b719781e9e85","computer","6","1024","3","Pre","image1.jpg","Cut_jazz_10.mp3","Both"
"5f963718a844b719781e9e85","computer","7","1069","5","Pre","image39.jpg","Cut_jazz_14.mp3","Image"
"5f963718a844b719781e9e85","computer","8","753","5","Pre","image2.jpg","Cut_jazz_1.mp3","Image"
"5f963718a844b719781e9e85","computer","9","860","6","Pre","image14.jpg","Classical_17.mp3","Image"
"5f963718a844b719781e9e85","computer","10","1811","6","Pre","image35.jpg","Classical_7.mp3","Music"
"5f963718a844b719781e9e85","computer","11","765","6","Pre","image3.jpg","Cut_jazz_1.mp3","Music"
"5f963718a844b719781e9e85","computer","12","1756","6","Pre","image5.jpg","Classical_2.mp3","Both"
"5f963718a844b719781e9e85","computer","13","2091","6","Pre","image20.jpg","Classical_19.mp3","Image"
"5f963718a844b719781e9e85","computer","14","1131","3","Pre","image1.jpg","Cut_jazz_5.mp3","Music"
"5f963718a844b719781e9e85","computer","15","1050","5","Pre","image52.jpg","Classical_2.mp3","Music"
"5f963718a844b719781e9e85","computer","16","1863","4","Pre","image36.jpg","Cut_jazz_14.mp3","Music"
"5f963718a844b719781e9e85","computer","17","1360","5","Pre","image3.jpg","Cut_jazz_2.mp3","Image"
"5f963718a844b719781e9e85","computer","18","1033","3","Pre","image12.jpg","Cut_jazz_7.mp3","Music"
"5f963718a844b719781e9e85","computer","19","1135","5","Pre","image10.jpg","Cut_jazz_5.mp3","Image"
"5f963718a844b719781e9e85","computer","20","1409","6","Pre","image5.jpg","Classical_4.mp3","Music"
"5f963718a844b719781e9e85","computer","21","1923","3","Pre","image10.jpg","Cut_jazz_10.mp3","Music"
"5f963718a844b719781e9e85","computer","22","702","7","Pre","image33.jpg","Classical_7.mp3","Image"
"5f963718a844b719781e9e85","computer","23","529","7","Pre","image52.jpg","Classical_1.mp3","Both"
"5f963718a844b719781e9e85","computer","24","1288","3","Pre","image12.jpg","Cut_jazz_5.mp3","Both"
"5f963718a844b719781e9e85","computer","25","1088","7","Pre","image14.jpg","Classical_18.mp3","Both"
"5f963718a844b719781e9e85","computer","26","1217","3","Pre","image36.jpg","Cut_jazz_19.mp3","Both"
"5f963718a844b719781e9e85","computer","27","678","7","Pre","image3.jpg","Classical_19.mp3","Both"
"5f963718a844b719781e9e85","computer","28","493","7","Pre","image35.jpg","Classical_6.mp3","Both"
"5f963718a844b719781e9e85","computer","29","1685","3","Pre","image4.jpg","Cut_jazz_19.mp3","Image"
"5f963718a844b719781e9e85","computer","30","1675","3","Pre","image15.jpg","Classical_17.mp3","Both"
"5f963718a844b719781e9e85","computer","31","984","3","Pre","image20.jpg","Cut_jazz_1.mp3","Both"
"5f963718a844b719781e9e85","computer","32","591","2","Pre","image39.jpg","Cut_jazz_16.mp3","Both"
"5f963718a844b719781e9e85","computer","33","1060","5","Pre","image17.jpg","Classical_18.mp3","Image"
"5f963718a844b719781e9e85","computer","34","766","6","Pre","image33.jpg","Classical_6.mp3","Music"
"5f963718a844b719781e9e85","computer","35","1129","5","Pre","image14.jpg","Classical_15.mp3","Music"
"5f963718a844b719781e9e85","computer","36","2012","5","Pre","image35.jpg","Classical_8.mp3","Image"
"5f963718a844b719781e9e85","computer","37","1153","3","Pre","image4.jpg","Cut_jazz_14.mp3","Both"
"5f963718a844b719781e9e85","computer","38","1565","5","Pre","image52.jpg","Classical_4.mp3","Image"
"5f963718a844b719781e9e85","computer","39","728","2","Pre","image20.jpg","Cut_jazz_2.mp3","Music"
"5f963718a844b719781e9e85","computer","40","1129","5","Pre","image33.jpg","Classical_8.mp3","Both"
"5f963718a844b719781e9e85","computer","41","755","6","Pre","image2.jpg","Classical_19.mp3","Music"
"5f963718a844b719781e9e85","computer","42","1404","6","Pre","image34.jpg","Classical_7.mp3","Both"
"5f963718a844b719781e9e85","computer","43","512","6","Pre","image5.jpg","Classical_1.mp3","Image"
"5f963718a844b719781e9e85","computer","44","910","3","Pre","image47.jpg","Classical_2.mp3","Image"
"5f963718a844b719781e9e85","computer","45","731","3","Pre","image15.jpg","Classical_15.mp3","Image"
"5f963718a844b719781e9e85","computer","46","1149","6","Pre","image34.jpg","Classical_6.mp3","Image"
"5f963718a844b719781e9e85","computer","47","1490","2","Pre","image12.jpg","Cut_jazz_10.mp3","Image"
"5f963718a844b719781e9e85","computer","48","606","4","Pre","image2.jpg","Cut_jazz_2.mp3","Both"
"5f963718a844b719781e9e85","computer","49","905","3","Pre","image4.jpg","Cut_jazz_16.mp3","Music"
"5f963718a844b719781e9e85","computer","50","1034","7","Pre","image17.jpg","Classical_15.mp3","Both"
"5f963718a844b719781e9e85","computer","51","746","3","Pre","image1.jpg","Cut_jazz_7.mp3","Image"
"5f963718a844b719781e9e85","computer","52","810","3","Pre","image15.jpg","Classical_18.mp3","Music"
"5f963718a844b719781e9e85","computer","53","557","4","Pre","image17.jpg","Classical_17.mp3","Music"
"5f963718a844b719781e9e85","computer","54","1638","3","Pre","image47.jpg","Classical_4.mp3","Both"
"5f963718a844b719781e9e85","computer","55","2302","6","Pre","image34.jpg","Classical_8.mp3","Music"
"5f963718a844b719781e9e85","computer","56","817","2","Pre","image36.jpg","Cut_jazz_16.mp3","Image"
"5f963718a844b719781e9e85","computer","57","559","3","Pre","image39.jpg","Cut_jazz_19.mp3","Music"
"5d12423a1a6cf5001ecbe000","computer","4","1456.60000002384","2","Post","image47.jpg","Cut_jazz_10.mp3","Both"
"5d12423a1a6cf5001ecbe000","computer","5","927.399999976158","3","Post","image12.jpg","Cut_jazz_16.mp3","Music"
"5d12423a1a6cf5001ecbe000","computer","6","1254.70000004768","2","Post","image36.jpg","Classical_4.mp3","Both"
"5d12423a1a6cf5001ecbe000","computer","7","749.100000023842","7","Post","image17.jpg","Cut_jazz_2.mp3","Image"
"5d12423a1a6cf5001ecbe000","computer","8","731.399999976158","3","Post","image39.jpg","Classical_1.mp3","Image"
"5d12423a1a6cf5001ecbe000","computer","9","973.100000023842","4","Post","image10.jpg","Cut_jazz_19.mp3","Music"
"5d12423a1a6cf5001ecbe000","computer","10","591","2","Post","image15.jpg","Classical_19.mp3","Image"
"5d12423a1a6cf5001ecbe000","computer","11","1289.29999995232","3","Post","image10.jpg","Cut_jazz_16.mp3","Both"
"5d12423a1a6cf5001ecbe000","computer","12","838.100000023842","5","Post","image3.jpg","Classical_7.mp3","Music"
"5d12423a1a6cf5001ecbe000","computer","13","537.300000071526","1","Post","image4.jpg","Classical_4.mp3","Image"
"5d12423a1a6cf5001ecbe000","computer","14","1032","2","Post","image12.jpg","Cut_jazz_14.mp3","Both"
"5d12423a1a6cf5001ecbe000","computer","15","568.199999928474","6","Post","image14.jpg","Cut_jazz_2.mp3","Both"
"5d12423a1a6cf5001ecbe000","computer","16","1457","3","Post","image39.jpg","Classical_2.mp3","Both"
"5d12423a1a6cf5001ecbe000","computer","17","1264.10000002384","3","Post","image1.jpg","Cut_jazz_19.mp3","Both"
"5d12423a1a6cf5001ecbe000","computer","18","1811.60000002384","4","Post","image33.jpg","Classical_18.mp3","Both"
"5d12423a1a6cf5001ecbe000","computer","19","677.799999952316","5","Post","image20.jpg","Classical_8.mp3","Music"
"5d12423a1a6cf5001ecbe000","computer","20","796.200000047684","3","Post","image2.jpg","Classical_6.mp3","Music"
"5d12423a1a6cf5001ecbe000","computer","21","1997.20000004768","1","Post","image33.jpg","Classical_17.mp3","Image"
"5d12423a1a6cf5001ecbe000","computer","22","729.5","2","Post","image12.jpg","Cut_jazz_19.mp3","Image"
"5d12423a1a6cf5001ecbe000","computer","23","644.700000047684","1","Post","image10.jpg","Cut_jazz_14.mp3","Image"
"5d12423a1a6cf5001ecbe000","computer","24","1452.09999990463","5","Post","image36.jpg","Classical_1.mp3","Music"
"5d12423a1a6cf5001ecbe000","computer","25","1118.40000009537","6","Post","image14.jpg","Classical_19.mp3","Music"
"5d12423a1a6cf5001ecbe000","computer","26","1248.5","2","Post","image47.jpg","Cut_jazz_7.mp3","Image"
"5d12423a1a6cf5001ecbe000","computer","27","900.100000023842","3","Post","image35.jpg","Classical_15.mp3","Both"
"5d12423a1a6cf5001ecbe000","computer","28","1049.39999997616","6","Post","image3.jpg","Classical_8.mp3","Image"
"5d12423a1a6cf5001ecbe000","computer","29","711.399999976158","1","Post","image15.jpg","Cut_jazz_1.mp3","Both"
"5d12423a1a6cf5001ecbe000","computer","30","1406.89999997616","1","Post","image52.jpg","Cut_jazz_5.mp3","Both"
"5d12423a1a6cf5001ecbe000","computer","31","1832.10000002384","3","Post","image15.jpg","Cut_jazz_2.mp3","Music"
"5d12423a1a6cf5001ecbe000","computer","32","681.700000047684","2","Post","image5.jpg","Cut_jazz_5.mp3","Image"
"5d12423a1a6cf5001ecbe000","computer","33","820.399999976158","5","Post","image20.jpg","Classical_6.mp3","Image"
"5d12423a1a6cf5001ecbe000","computer","34","375.799999952316","1","Post","image39.jpg","Classical_4.mp3","Music"
"5d12423a1a6cf5001ecbe000","computer","35","919.700000047684","3","Post","image1.jpg","Cut_jazz_14.mp3","Music"
"5d12423a1a6cf5001ecbe000","computer","36","1032.69999992847","6","Post","image2.jpg","Classical_8.mp3","Both"
"5d12423a1a6cf5001ecbe000","computer","37","597","2","Post","image5.jpg","Cut_jazz_7.mp3","Both"
"5d12423a1a6cf5001ecbe000","computer","38","891.899999976158","7","Post","image3.jpg","Classical_6.mp3","Both"
"5d12423a1a6cf5001ecbe000","computer","39","1046.10000002384","2","Post","image52.jpg","Cut_jazz_10.mp3","Image"
"5d12423a1a6cf5001ecbe000","computer","40","1279.89999997616","4","Post","image35.jpg","Classical_17.mp3","Music"
"5d12423a1a6cf5001ecbe000","computer","41","896.599999904633","4","Post","image4.jpg","Classical_2.mp3","Music"
"5d12423a1a6cf5001ecbe000","computer","42","1866.89999997616","5","Post","image17.jpg","Classical_19.mp3","Both"
"5d12423a1a6cf5001ecbe000","computer","43","531.900000095367","1","Post","image34.jpg","Classical_15.mp3","Image"
"5d12423a1a6cf5001ecbe000","computer","44","719","1","Post","image1.jpg","Cut_jazz_16.mp3","Image"
"5d12423a1a6cf5001ecbe000","computer","45","4206.40000009537","6","Post","image20.jpg","Classical_7.mp3","Both"
"5d12423a1a6cf5001ecbe000","computer","46","714.100000023842","3","Post","image47.jpg","Cut_jazz_5.mp3","Music"
"5d12423a1a6cf5001ecbe000","computer","47","600.800000071526","1","Post","image35.jpg","Classical_18.mp3","Image"
"5d12423a1a6cf5001ecbe000","computer","48","817.600000023842","1","Post","image36.jpg","Classical_2.mp3","Image"
"5d12423a1a6cf5001ecbe000","computer","49","684.200000047684","2","Post","image17.jpg","Cut_jazz_1.mp3","Music"
"5d12423a1a6cf5001ecbe000","computer","50","647.599999904633","3","Post","image5.jpg","Cut_jazz_10.mp3","Music"
"5d12423a1a6cf5001ecbe000","computer","51","852","7","Post","image2.jpg","Classical_7.mp3","Image"
"5d12423a1a6cf5001ecbe000","computer","52","10781","4","Post","image4.jpg","Classical_1.mp3","Both"
"5d12423a1a6cf5001ecbe000","computer","53","1188.80000007153","4","Post","image52.jpg","Cut_jazz_7.mp3","Music"
"5d12423a1a6cf5001ecbe000","computer","54","618.5","8","Post","image14.jpg","Cut_jazz_1.mp3","Image"
"5d12423a1a6cf5001ecbe000","computer","55","832","4","Post","image33.jpg","Classical_15.mp3","Music"
"5d12423a1a6cf5001ecbe000","computer","56","628.399999976158","3","Post","image34.jpg","Classical_17.mp3","Both"
"5d12423a1a6cf5001ecbe000","computer","57","1241","5","Post","image34.jpg","Classical_18.mp3","Music"
"5d12423a1a6cf5001ecbe000","computer","4","1042.30000007153","6","Pre","image47.jpg","Classical_1.mp3","Music"
"5d12423a1a6cf5001ecbe000","computer","5","1051.89999997616","1","Pre","image10.jpg","Cut_jazz_7.mp3","Both"
"5d12423a1a6cf5001ecbe000","computer","6","1273.5","2","Pre","image1.jpg","Cut_jazz_10.mp3","Both"
"5d12423a1a6cf5001ecbe000","computer","7","892","4","Pre","image39.jpg","Cut_jazz_14.mp3","Image"
"5d12423a1a6cf5001ecbe000","computer","8","946.600000023842","7","Pre","image2.jpg","Cut_jazz_1.mp3","Image"
"5d12423a1a6cf5001ecbe000","computer","9","790","9","Pre","image14.jpg","Classical_17.mp3","Image"
"5d12423a1a6cf5001ecbe000","computer","10","3474.29999995232","4","Pre","image35.jpg","Classical_7.mp3","Music"
"5d12423a1a6cf5001ecbe000","computer","11","959.699999928474","3","Pre","image3.jpg","Cut_jazz_1.mp3","Music"
"5d12423a1a6cf5001ecbe000","computer","12","992.299999952316","3","Pre","image5.jpg","Classical_2.mp3","Both"
"5d12423a1a6cf5001ecbe000","computer","13","660.399999976158","6","Pre","image20.jpg","Classical_19.mp3","Image"
"5d12423a1a6cf5001ecbe000","computer","14","550.600000023842","1","Pre","image1.jpg","Cut_jazz_5.mp3","Music"
"5d12423a1a6cf5001ecbe000","computer","15","2313.20000004768","2","Pre","image52.jpg","Classical_2.mp3","Music"
"5d12423a1a6cf5001ecbe000","computer","16","812.100000023842","3","Pre","image36.jpg","Cut_jazz_14.mp3","Music"
"5d12423a1a6cf5001ecbe000","computer","17","723.600000023842","7","Pre","image3.jpg","Cut_jazz_2.mp3","Image"
"5d12423a1a6cf5001ecbe000","computer","18","822.600000023842","2","Pre","image12.jpg","Cut_jazz_7.mp3","Music"
"5d12423a1a6cf5001ecbe000","computer","19","809.100000023842","1","Pre","image10.jpg","Cut_jazz_5.mp3","Image"
"5d12423a1a6cf5001ecbe000","computer","20","701.299999952316","1","Pre","image5.jpg","Classical_4.mp3","Music"
"5d12423a1a6cf5001ecbe000","computer","21","813.599999904633","2","Pre","image10.jpg","Cut_jazz_10.mp3","Music"
"5d12423a1a6cf5001ecbe000","computer","22","799.399999976158","1","Pre","image33.jpg","Classical_7.mp3","Image"
"5d12423a1a6cf5001ecbe000","computer","23","1908.39999997616","2","Pre","image52.jpg","Classical_1.mp3","Both"
"5d12423a1a6cf5001ecbe000","computer","24","2512","2","Pre","image12.jpg","Cut_jazz_5.mp3","Both"
"5d12423a1a6cf5001ecbe000","computer","25","1044.30000007153","9","Pre","image14.jpg","Classical_18.mp3","Both"
"5d12423a1a6cf5001ecbe000","computer","26","2561.20000004768","1","Pre","image36.jpg","Cut_jazz_19.mp3","Both"
"5d12423a1a6cf5001ecbe000","computer","27","799","7","Pre","image3.jpg","Classical_19.mp3","Both"
"5d12423a1a6cf5001ecbe000","computer","28","804.800000071526","3","Pre","image35.jpg","Classical_6.mp3","Both"
"5d12423a1a6cf5001ecbe000","computer","29","603.099999904633","1","Pre","image4.jpg","Cut_jazz_19.mp3","Image"
"5d12423a1a6cf5001ecbe000","computer","30","1111.20000004768","1","Pre","image15.jpg","Classical_17.mp3","Both"
"5d12423a1a6cf5001ecbe000","computer","31","832.199999928474","4","Pre","image20.jpg","Cut_jazz_1.mp3","Both"
"5d12423a1a6cf5001ecbe000","computer","32","7639.60000002384","2","Pre","image39.jpg","Cut_jazz_16.mp3","Both"
"5d12423a1a6cf5001ecbe000","computer","33","1004.19999992847","7","Pre","image17.jpg","Classical_18.mp3","Image"
"5d12423a1a6cf5001ecbe000","computer","34","19987","5","Pre","image33.jpg","Classical_6.mp3","Music"
"5d12423a1a6cf5001ecbe000","computer","35","3261.29999995232","7","Pre","image14.jpg","Classical_15.mp3","Music"
"5d12423a1a6cf5001ecbe000","computer","36","1892","2","Pre","image35.jpg","Classical_8.mp3","Image"
"5d12423a1a6cf5001ecbe000","computer","37","1012","1","Pre","image4.jpg","Cut_jazz_14.mp3","Both"
"5d12423a1a6cf5001ecbe000","computer","38","1005.19999992847","2","Pre","image52.jpg","Classical_4.mp3","Image"
"5d12423a1a6cf5001ecbe000","computer","39","1724.20000004768","3","Pre","image20.jpg","Cut_jazz_2.mp3","Music"
"5d12423a1a6cf5001ecbe000","computer","40","3381.39999997616","2","Pre","image33.jpg","Classical_8.mp3","Both"
"5d12423a1a6cf5001ecbe000","computer","41","725.300000071526","6","Pre","image2.jpg","Classical_19.mp3","Music"
"5d12423a1a6cf5001ecbe000","computer","42","2876.5","2","Pre","image34.jpg","Classical_7.mp3","Both"
"5d12423a1a6cf5001ecbe000","computer","43","531.600000023842","3","Pre","image5.jpg","Classical_1.mp3","Image"
"5d12423a1a6cf5001ecbe000","computer","44","1272.20000004768","2","Pre","image47.jpg","Classical_2.mp3","Image"
"5d12423a1a6cf5001ecbe000","computer","45","528.400000095367","1","Pre","image15.jpg","Classical_15.mp3","Image"
"5d12423a1a6cf5001ecbe000","computer","46","470.600000023842","1","Pre","image34.jpg","Classical_6.mp3","Image"
"5d12423a1a6cf5001ecbe000","computer","47","705.600000023842","2","Pre","image12.jpg","Cut_jazz_10.mp3","Image"
"5d12423a1a6cf5001ecbe000","computer","48","1109","6","Pre","image2.jpg","Cut_jazz_2.mp3","Both"
"5d12423a1a6cf5001ecbe000","computer","49","1058.69999992847","2","Pre","image4.jpg","Cut_jazz_16.mp3","Music"
"5d12423a1a6cf5001ecbe000","computer","50","1765.90000009537","6","Pre","image17.jpg","Classical_15.mp3","Both"
"5d12423a1a6cf5001ecbe000","computer","51","1563.89999997616","1","Pre","image1.jpg","Cut_jazz_7.mp3","Image"
"5d12423a1a6cf5001ecbe000","computer","52","20647.3999999762","4","Pre","image15.jpg","Classical_18.mp3","Music"
"5d12423a1a6cf5001ecbe000","computer","53","2755.30000007153","5","Pre","image17.jpg","Classical_17.mp3","Music"
"5d12423a1a6cf5001ecbe000","computer","54","7846.09999990463","1","Pre","image47.jpg","Classical_4.mp3","Both"
"5d12423a1a6cf5001ecbe000","computer","55","1396.29999995232","4","Pre","image34.jpg","Classical_8.mp3","Music"
"5d12423a1a6cf5001ecbe000","computer","56","85318.2999999523","1","Pre","image36.jpg","Cut_jazz_16.mp3","Image"
"5d12423a1a6cf5001ecbe000","computer","57","1054.89999997616","5","Pre","image39.jpg","Cut_jazz_19.mp3","Music"
"5d42486206811e001ada5b4b","computer","4","2244.79999995232","8","Pre","image14.jpg","Classical_6.mp3","Music"
"5d42486206811e001ada5b4b","computer","5","2089.79999995232","6","Pre","image33.jpg","Classical_15.mp3","Music"
"5d42486206811e001ada5b4b","computer","6","1918.10000002384","4","Pre","image15.jpg","Classical_8.mp3","Music"
"5d42486206811e001ada5b4b","computer","7","1881.90000009537","6","Pre","image1.jpg","Cut_jazz_19.mp3","Both"
"5d42486206811e001ada5b4b","computer","8","1604.5","2","Pre","image52.jpg","Classical_4.mp3","Image"
"5d42486206811e001ada5b4b","computer","9","3039.80000007153","4","Pre","image39.jpg","Cut_jazz_1.mp3","Both"
"5d42486206811e001ada5b4b","computer","10","2976.90000009537","5","Pre","image47.jpg","Classical_1.mp3","Music"
"5d42486206811e001ada5b4b","computer","11","1827.20000004768","3","Pre","image4.jpg","Cut_jazz_2.mp3","Image"
"5d42486206811e001ada5b4b","computer","12","1680","8","Pre","image2.jpg","Cut_jazz_10.mp3","Both"
"5d42486206811e001ada5b4b","computer","13","2348.69999992847","3","Pre","image4.jpg","Classical_19.mp3","Both"
"5d42486206811e001ada5b4b","computer","14","1328","1","Pre","image34.jpg","Classical_15.mp3","Image"
"5d42486206811e001ada5b4b","computer","15","2186.20000004768","3","Pre","image39.jpg","Classical_19.mp3","Image"
"5d42486206811e001ada5b4b","computer","16","1945.40000009537","5","Pre","image15.jpg","Classical_7.mp3","Both"
"5d42486206811e001ada5b4b","computer","17","1354.10000002384","8","Pre","image1.jpg","Cut_jazz_14.mp3","Music"
"5d42486206811e001ada5b4b","computer","18","2968.10000002384","7","Pre","image20.jpg","Cut_jazz_7.mp3","Both"
"5d42486206811e001ada5b4b","computer","19","1771","7","Pre","image36.jpg","Classical_19.mp3","Music"
"5d42486206811e001ada5b4b","computer","20","1744.20000004768","4","Pre","image15.jpg","Classical_6.mp3","Image"
"5d42486206811e001ada5b4b","computer","21","1245.70000004768","7","Pre","image34.jpg","Classical_18.mp3","Music"
"5d42486206811e001ada5b4b","computer","22","1302.89999997616","8","Pre","image5.jpg","Classical_1.mp3","Image"
"5d42486206811e001ada5b4b","computer","23","1661.5","8","Pre","image3.jpg","Cut_jazz_10.mp3","Image"
"5d42486206811e001ada5b4b","computer","24","1570.20000004768","2","Pre","image47.jpg","Classical_4.mp3","Both"
"5d42486206811e001ada5b4b","computer","25","1982.39999997616","8","Pre","image17.jpg","Classical_7.mp3","Music"
"5d42486206811e001ada5b4b","computer","26","2323.5","6","Pre","image2.jpg","Cut_jazz_5.mp3","Music"
"5d42486206811e001ada5b4b","computer","27","1525.29999995232","7","Pre","image35.jpg","Classical_17.mp3","Music"
"5d42486206811e001ada5b4b","computer","28","1261.30000007153","8","Pre","image10.jpg","Cut_jazz_19.mp3","Music"
"5d42486206811e001ada5b4b","computer","29","1193.60000002384","2","Pre","image34.jpg","Classical_17.mp3","Both"
"5d42486206811e001ada5b4b","computer","30","2647.09999990463","2","Pre","image35.jpg","Classical_18.mp3","Image"
"5d42486206811e001ada5b4b","computer","31","1560.29999995232","7","Pre","image12.jpg","Cut_jazz_14.mp3","Both"
"5d42486206811e001ada5b4b","computer","32","2037","7","Pre","image5.jpg","Classical_4.mp3","Music"
"5d42486206811e001ada5b4b","computer","33","1380.79999995232","6","Pre","image35.jpg","Classical_15.mp3","Both"
"5d42486206811e001ada5b4b","computer","34","2736.80000007153","7","Pre","image17.jpg","Classical_8.mp3","Image"
"5d42486206811e001ada5b4b","computer","35","1529.40000009537","6","Pre","image2.jpg","Cut_jazz_7.mp3","Image"
"5d42486206811e001ada5b4b","computer","36","1264.10000002384","5","Pre","image10.jpg","Cut_jazz_14.mp3","Image"
"5d42486206811e001ada5b4b","computer","37","1392.79999995232","3","Pre","image33.jpg","Classical_18.mp3","Both"
"5d42486206811e001ada5b4b","computer","38","1009.69999992847","8","Pre","image17.jpg","Classical_6.mp3","Both"
"5d42486206811e001ada5b4b","computer","39","1294.29999995232","6","Pre","image52.jpg","Classical_1.mp3","Both"
"5d42486206811e001ada5b4b","computer","40","1193.60000002384","7","Pre","image12.jpg","Cut_jazz_16.mp3","Music"
"5d42486206811e001ada5b4b","computer","41","1413.69999992847","7","Pre","image4.jpg","Cut_jazz_1.mp3","Music"
"5d42486206811e001ada5b4b","computer","42","1765.29999995232","8","Pre","image5.jpg","Classical_2.mp3","Both"
"5d42486206811e001ada5b4b","computer","43","1392.5","7","Pre","image39.jpg","Cut_jazz_2.mp3","Music"
"5d42486206811e001ada5b4b","computer","44","1474.59999990463","8","Pre","image52.jpg","Classical_2.mp3","Music"
"5d42486206811e001ada5b4b","computer","45","2337.70000004768","7","Pre","image14.jpg","Classical_7.mp3","Image"
"5d42486206811e001ada5b4b","computer","46","958.199999928474","8","Pre","image3.jpg","Cut_jazz_5.mp3","Both"
"5d42486206811e001ada5b4b","computer","47","1694.60000002384","2","Pre","image33.jpg","Classical_17.mp3","Image"
"5d42486206811e001ada5b4b","computer","48","1729.79999995232","8","Pre","image14.jpg","Classical_8.mp3","Both"
"5d42486206811e001ada5b4b","computer","49","2089.09999990463","7","Pre","image20.jpg","Cut_jazz_10.mp3","Music"
"5d42486206811e001ada5b4b","computer","50","1258","2","Pre","image47.jpg","Classical_2.mp3","Image"
"5d42486206811e001ada5b4b","computer","51","1447.20000004768","8","Pre","image3.jpg","Cut_jazz_7.mp3","Music"
"5d42486206811e001ada5b4b","computer","52","1429.5","8","Pre","image10.jpg","Cut_jazz_16.mp3","Both"
"5d42486206811e001ada5b4b","computer","53","1195.39999997616","8","Pre","image12.jpg","Cut_jazz_19.mp3","Image"
"5d42486206811e001ada5b4b","computer","54","1678.10000002384","8","Pre","image36.jpg","Cut_jazz_2.mp3","Both"
"5d42486206811e001ada5b4b","computer","55","2618.10000002384","7","Pre","image20.jpg","Cut_jazz_5.mp3","Image"
"5d42486206811e001ada5b4b","computer","56","1427.10000002384","2","Pre","image36.jpg","Cut_jazz_1.mp3","Image"
"5d42486206811e001ada5b4b","computer","57","1459","6","Pre","image1.jpg","Cut_jazz_16.mp3","Image"
"5d42486206811e001ada5b4b","computer","4","1322.39999997616","8","Post","image14.jpg","Classical_17.mp3","Image"
"5d42486206811e001ada5b4b","computer","5","2289.60000002384","8","Post","image36.jpg","Cut_jazz_14.mp3","Music"
"5d42486206811e001ada5b4b","computer","6","856.800000071526","8","Post","image39.jpg","Cut_jazz_19.mp3","Music"
"5d42486206811e001ada5b4b","computer","7","1472.39999997616","7","Post","image15.jpg","Classical_17.mp3","Both"
"5d42486206811e001ada5b4b","computer","8","1257.5","8","Post","image20.jpg","Cut_jazz_7.mp3","Both"
"5d42486206811e001ada5b4b","computer","9","942.799999952316","8","Post","image2.jpg","Cut_jazz_10.mp3","Both"
"5d42486206811e001ada5b4b","computer","10","1461.79999995232","9","Post","image5.jpg","Classical_4.mp3","Music"
"5d42486206811e001ada5b4b","computer","11","718.100000023842","8","Post","image35.jpg","Cut_jazz_1.mp3","Music"
"5d42486206811e001ada5b4b","computer","12","1975.79999995232","4","Post","image4.jpg","Cut_jazz_19.mp3","Image"
"5d42486206811e001ada5b4b","computer","13","901.199999928474","8","Post","image14.jpg","Classical_18.mp3","Both"
"5d42486206811e001ada5b4b","computer","14","958","8","Post","image39.jpg","Cut_jazz_16.mp3","Both"
"5d42486206811e001ada5b4b","computer","15","1017.29999995232","7","Post","image20.jpg","Cut_jazz_10.mp3","Music"
"5d42486206811e001ada5b4b","computer","16","1059.60000002384","6","Post","image36.jpg","Cut_jazz_19.mp3","Both"
"5d42486206811e001ada5b4b","computer","17","1058","5","Post","image15.jpg","Classical_15.mp3","Image"
"5d42486206811e001ada5b4b","computer","18","802","2","Post","image52.jpg","Classical_4.mp3","Image"
"5d42486206811e001ada5b4b","computer","19","794.800000071526","8","Post","image33.jpg","Classical_19.mp3","Music"
"5d42486206811e001ada5b4b","computer","20","727.700000047684","8","Post","image3.jpg","Cut_jazz_10.mp3","Image"
"5d42486206811e001ada5b4b","computer","21","987","3","Post","image34.jpg","Cut_jazz_1.mp3","Both"
"5d42486206811e001ada5b4b","computer","22","1200.29999995232","5","Post","image4.jpg","Cut_jazz_14.mp3","Both"
"5d42486206811e001ada5b4b","computer","23","916.299999952316","7","Post","image12.jpg","Classical_8.mp3","Image"
"5d42486206811e001ada5b4b","computer","24","1152.29999995232","7","Post","image2.jpg","Cut_jazz_5.mp3","Music"
"5d42486206811e001ada5b4b","computer","25","867.600000023842","4","Post","image10.jpg","Classical_6.mp3","Image"
"5d42486206811e001ada5b4b","computer","26","1326.10000002384","7","Post","image1.jpg","Classical_7.mp3","Image"
"5d42486206811e001ada5b4b","computer","27","942.700000047684","1","Post","image33.jpg","Cut_jazz_1.mp3","Image"
"5d42486206811e001ada5b4b","computer","28","911","7","Post","image12.jpg","Classical_6.mp3","Both"
"5d42486206811e001ada5b4b","computer","29","1098.19999992847","4","Post","image36.jpg","Cut_jazz_16.mp3","Image"
"5d42486206811e001ada5b4b","computer","30","1097","8","Post","image17.jpg","Classical_18.mp3","Image"
"5d42486206811e001ada5b4b","computer","31","808.900000095367","9","Post","image14.jpg","Classical_15.mp3","Music"
"5d42486206811e001ada5b4b","computer","32","794.400000095367","1","Post","image34.jpg","Classical_19.mp3","Image"
"5d42486206811e001ada5b4b","computer","33","724.800000071526","8","Post","image1.jpg","Classical_6.mp3","Music"
"5d42486206811e001ada5b4b","computer","34","844.700000047684","8","Post","image5.jpg","Classical_2.mp3","Both"
"5d42486206811e001ada5b4b","computer","35","740.299999952316","2","Post","image47.jpg","Classical_4.mp3","Both"
"5d42486206811e001ada5b4b","computer","36","929.299999952316","8","Post","image15.jpg","Classical_18.mp3","Music"
"5d42486206811e001ada5b4b","computer","37","1171.30000007153","8","Post","image3.jpg","Cut_jazz_7.mp3","Music"
"5d42486206811e001ada5b4b","computer","38","1072","7","Post","image47.jpg","Classical_1.mp3","Music"
"5d42486206811e001ada5b4b","computer","39","1276.70000004768","7","Post","image34.jpg","Cut_jazz_2.mp3","Music"
"5d42486206811e001ada5b4b","computer","40","942.900000095367","8","Post","image10.jpg","Classical_8.mp3","Music"
"5d42486206811e001ada5b4b","computer","41","1074.70000004768","7","Post","image17.jpg","Classical_17.mp3","Music"
"5d42486206811e001ada5b4b","computer","42","939.5","3","Post","image33.jpg","Cut_jazz_2.mp3","Both"
"5d42486206811e001ada5b4b","computer","43","1293.19999992847","6","Post","image39.jpg","Cut_jazz_14.mp3","Image"
"5d42486206811e001ada5b4b","computer","44","956.5","8","Post","image20.jpg","Cut_jazz_5.mp3","Image"
"5d42486206811e001ada5b4b","computer","45","864.299999952316","7","Post","image4.jpg","Cut_jazz_16.mp3","Music"
"5d42486206811e001ada5b4b","computer","46","1291.80000007153","8","Post","image5.jpg","Classical_1.mp3","Image"
"5d42486206811e001ada5b4b","computer","47","1278","8","Post","image35.jpg","Classical_19.mp3","Both"
"5d42486206811e001ada5b4b","computer","48","888.900000095367","5","Post","image52.jpg","Classical_1.mp3","Both"
"5d42486206811e001ada5b4b","computer","49","1217.20000004768","7","Post","image10.jpg","Classical_7.mp3","Both"
"5d42486206811e001ada5b4b","computer","50","781.100000023842","7","Post","image52.jpg","Classical_2.mp3","Music"
"5d42486206811e001ada5b4b","computer","51","1819.39999997616","5","Post","image1.jpg","Classical_8.mp3","Both"
"5d42486206811e001ada5b4b","computer","52","954.899999976158","8","Post","image2.jpg","Cut_jazz_7.mp3","Image"
"5d42486206811e001ada5b4b","computer","53","939.799999952316","2","Post","image35.jpg","Cut_jazz_2.mp3","Image"
"5d42486206811e001ada5b4b","computer","54","814.299999952316","8","Post","image17.jpg","Classical_15.mp3","Both"
"5d42486206811e001ada5b4b","computer","55","851.800000071526","9","Post","image3.jpg","Cut_jazz_5.mp3","Both"
"5d42486206811e001ada5b4b","computer","56","763.100000023842","1","Post","image47.jpg","Classical_2.mp3","Image"
"5d42486206811e001ada5b4b","computer","57","728.100000023842","8","Post","image12.jpg","Classical_7.mp3","Music"
"60576ce95933970d7f0b8fc2","computer","4","1556","4","Pre","image14.jpg","Classical_6.mp3","Music"
"60576ce95933970d7f0b8fc2","computer","5","1655.10000014305","1","Pre","image33.jpg","Classical_15.mp3","Music"
"60576ce95933970d7f0b8fc2","computer","6","1841.29999995232","4","Pre","image15.jpg","Classical_8.mp3","Music"
"60576ce95933970d7f0b8fc2","computer","7","1420.40000009537","1","Pre","image1.jpg","Cut_jazz_19.mp3","Both"
"60576ce95933970d7f0b8fc2","computer","8","1062.39999985695","6","Pre","image52.jpg","Classical_4.mp3","Image"
"60576ce95933970d7f0b8fc2","computer","9","1102.30000019073","1","Pre","image39.jpg","Cut_jazz_1.mp3","Both"
"60576ce95933970d7f0b8fc2","computer","10","3053.5","2","Pre","image47.jpg","Classical_1.mp3","Music"
"60576ce95933970d7f0b8fc2","computer","11","1387.90000009537","4","Pre","image4.jpg","Cut_jazz_2.mp3","Image"
"60576ce95933970d7f0b8fc2","computer","12","1333.09999990463","6","Pre","image2.jpg","Cut_jazz_10.mp3","Both"
"60576ce95933970d7f0b8fc2","computer","13","978.900000095367","6","Pre","image4.jpg","Classical_19.mp3","Both"
"60576ce95933970d7f0b8fc2","computer","14","1646.09999990463","6","Pre","image34.jpg","Classical_15.mp3","Image"
"60576ce95933970d7f0b8fc2","computer","15","951.200000047684","1","Pre","image39.jpg","Classical_19.mp3","Image"
"60576ce95933970d7f0b8fc2","computer","16","1048","1","Pre","image15.jpg","Classical_7.mp3","Both"
"60576ce95933970d7f0b8fc2","computer","17","1114.09999990463","9","Pre","image1.jpg","Cut_jazz_14.mp3","Music"
"60576ce95933970d7f0b8fc2","computer","18","1509.29999995232","2","Pre","image20.jpg","Cut_jazz_7.mp3","Both"
"60576ce95933970d7f0b8fc2","computer","19","1196.29999995232","8","Pre","image36.jpg","Classical_19.mp3","Music"
"60576ce95933970d7f0b8fc2","computer","20","864.200000047684","1","Pre","image15.jpg","Classical_6.mp3","Image"
"60576ce95933970d7f0b8fc2","computer","21","1182.5","1","Pre","image34.jpg","Classical_18.mp3","Music"
"60576ce95933970d7f0b8fc2","computer","22","909.299999952316","7","Pre","image5.jpg","Classical_1.mp3","Image"
"60576ce95933970d7f0b8fc2","computer","23","2530.5","3","Pre","image3.jpg","Cut_jazz_10.mp3","Image"
"60576ce95933970d7f0b8fc2","computer","24","864.900000095367","1","Pre","image47.jpg","Classical_4.mp3","Both"
"60576ce95933970d7f0b8fc2","computer","25","1139.09999990463","7","Pre","image17.jpg","Classical_7.mp3","Music"
"60576ce95933970d7f0b8fc2","computer","26","1633.59999990463","1","Pre","image2.jpg","Cut_jazz_5.mp3","Music"
"60576ce95933970d7f0b8fc2","computer","27","2449.5","6","Pre","image35.jpg","Classical_17.mp3","Music"
"60576ce95933970d7f0b8fc2","computer","28","2913.5","6","Pre","image10.jpg","Cut_jazz_19.mp3","Music"
"60576ce95933970d7f0b8fc2","computer","29","2438.39999985695","3","Pre","image34.jpg","Classical_17.mp3","Both"
"60576ce95933970d7f0b8fc2","computer","30","859.400000095367","1","Pre","image35.jpg","Classical_18.mp3","Image"
"60576ce95933970d7f0b8fc2","computer","31","913.299999952316","9","Pre","image12.jpg","Cut_jazz_14.mp3","Both"
"60576ce95933970d7f0b8fc2","computer","32","1305.39999985695","5","Pre","image5.jpg","Classical_4.mp3","Music"
"60576ce95933970d7f0b8fc2","computer","33","2613.29999995232","2","Pre","image35.jpg","Classical_15.mp3","Both"
"60576ce95933970d7f0b8fc2","computer","34","3268.60000014305","5","Pre","image17.jpg","Classical_8.mp3","Image"
"60576ce95933970d7f0b8fc2","computer","35","912.100000143051","9","Pre","image2.jpg","Cut_jazz_7.mp3","Image"
"60576ce95933970d7f0b8fc2","computer","36","1235.40000009537","6","Pre","image10.jpg","Cut_jazz_14.mp3","Image"
"60576ce95933970d7f0b8fc2","computer","37","1323.89999985695","1","Pre","image33.jpg","Classical_18.mp3","Both"
"60576ce95933970d7f0b8fc2","computer","38","1625.80000019073","3","Pre","image17.jpg","Classical_6.mp3","Both"
"60576ce95933970d7f0b8fc2","computer","39","825.5","9","Pre","image52.jpg","Classical_1.mp3","Both"
"60576ce95933970d7f0b8fc2","computer","40","5578.69999980927","7","Pre","image12.jpg","Cut_jazz_16.mp3","Music"
"60576ce95933970d7f0b8fc2","computer","41","3094.69999980927","6","Pre","image4.jpg","Cut_jazz_1.mp3","Music"
"60576ce95933970d7f0b8fc2","computer","42","1376.39999985695","7","Pre","image5.jpg","Classical_2.mp3","Both"
"60576ce95933970d7f0b8fc2","computer","43","974.100000143051","1","Pre","image39.jpg","Cut_jazz_2.mp3","Music"
"60576ce95933970d7f0b8fc2","computer","44","1795.60000014305","6","Pre","image52.jpg","Classical_2.mp3","Music"
"60576ce95933970d7f0b8fc2","computer","45","963.200000047684","9","Pre","image14.jpg","Classical_7.mp3","Image"
"60576ce95933970d7f0b8fc2","computer","46","1144.5","4","Pre","image3.jpg","Cut_jazz_5.mp3","Both"
"60576ce95933970d7f0b8fc2","computer","47","1001.89999985695","2","Pre","image33.jpg","Classical_17.mp3","Image"
"60576ce95933970d7f0b8fc2","computer","48","1005.10000014305","8","Pre","image14.jpg","Classical_8.mp3","Both"
"60576ce95933970d7f0b8fc2","computer","49","845.5","1","Pre","image20.jpg","Cut_jazz_10.mp3","Music"
"60576ce95933970d7f0b8fc2","computer","50","1648.29999995232","1","Pre","image47.jpg","Classical_2.mp3","Image"
"60576ce95933970d7f0b8fc2","computer","51","805.599999904633","9","Pre","image3.jpg","Cut_jazz_7.mp3","Music"
"60576ce95933970d7f0b8fc2","computer","52","632.399999856949","9","Pre","image10.jpg","Cut_jazz_16.mp3","Both"
"60576ce95933970d7f0b8fc2","computer","53","871.700000047684","9","Pre","image12.jpg","Cut_jazz_19.mp3","Image"
"60576ce95933970d7f0b8fc2","computer","54","6158.5","4","Pre","image36.jpg","Cut_jazz_2.mp3","Both"
"60576ce95933970d7f0b8fc2","computer","55","916.099999904633","9","Pre","image20.jpg","Cut_jazz_5.mp3","Image"
"60576ce95933970d7f0b8fc2","computer","56","1139.59999990463","7","Pre","image36.jpg","Cut_jazz_1.mp3","Image"
"60576ce95933970d7f0b8fc2","computer","57","1567","2","Pre","image1.jpg","Cut_jazz_16.mp3","Image"
"60576ce95933970d7f0b8fc2","computer","4","6170.5","5","Post","image14.jpg","Classical_17.mp3","Image"
"60576ce95933970d7f0b8fc2","computer","5","1589.70000004768","9","Post","image36.jpg","Cut_jazz_14.mp3","Music"
"60576ce95933970d7f0b8fc2","computer","6","1666.70000004768","5","Post","image39.jpg","Cut_jazz_19.mp3","Music"
"60576ce95933970d7f0b8fc2","computer","7","1095.39999985695","1","Post","image15.jpg","Classical_17.mp3","Both"
"60576ce95933970d7f0b8fc2","computer","8","1716.5","9","Post","image20.jpg","Cut_jazz_7.mp3","Both"
"60576ce95933970d7f0b8fc2","computer","9","4237.40000009537","4","Post","image2.jpg","Cut_jazz_10.mp3","Both"
"60576ce95933970d7f0b8fc2","computer","10","2411","5","Post","image5.jpg","Classical_4.mp3","Music"
"60576ce95933970d7f0b8fc2","computer","11","708.5","1","Post","image35.jpg","Cut_jazz_1.mp3","Music"
"60576ce95933970d7f0b8fc2","computer","12","1408","4","Post","image4.jpg","Cut_jazz_19.mp3","Image"
"60576ce95933970d7f0b8fc2","computer","13","600.899999856949","9","Post","image14.jpg","Classical_18.mp3","Both"
"60576ce95933970d7f0b8fc2","computer","14","1039.20000004768","1","Post","image39.jpg","Cut_jazz_16.mp3","Both"
"60576ce95933970d7f0b8fc2","computer","15","2806.90000009537","3","Post","image20.jpg","Cut_jazz_10.mp3","Music"
"60576ce95933970d7f0b8fc2","computer","16","1296.40000009537","4","Post","image36.jpg","Cut_jazz_19.mp3","Both"
"60576ce95933970d7f0b8fc2","computer","17","730","1","Post","image15.jpg","Classical_15.mp3","Image"
"60576ce95933970d7f0b8fc2","computer","18","646.899999856949","9","Post","image52.jpg","Classical_4.mp3","Image"
"60576ce95933970d7f0b8fc2","computer","19","525.399999856949","9","Post","image33.jpg","Classical_19.mp3","Music"
"60576ce95933970d7f0b8fc2","computer","20","1061.29999995232","9","Post","image3.jpg","Cut_jazz_10.mp3","Image"
"60576ce95933970d7f0b8fc2","computer","21","4125.79999995232","1","Post","image34.jpg","Cut_jazz_1.mp3","Both"
"60576ce95933970d7f0b8fc2","computer","22","6520.70000004768","3","Post","image4.jpg","Cut_jazz_14.mp3","Both"
"60576ce95933970d7f0b8fc2","computer","23","11142.9000000954","9","Post","image12.jpg","Classical_8.mp3","Image"
"60576ce95933970d7f0b8fc2","computer","24","1108.29999995232","1","Post","image2.jpg","Cut_jazz_5.mp3","Music"
"60576ce95933970d7f0b8fc2","computer","25","1170.5","4","Post","image10.jpg","Classical_6.mp3","Image"
"60576ce95933970d7f0b8fc2","computer","26","790.5","1","Post","image1.jpg","Classical_7.mp3","Image"
"60576ce95933970d7f0b8fc2","computer","27","508.899999856949","1","Post","image33.jpg","Cut_jazz_1.mp3","Image"
"60576ce95933970d7f0b8fc2","computer","28","712.200000047684","9","Post","image12.jpg","Classical_6.mp3","Both"
