Prolific_ID,Participant.Device.Type,Trial.Number,Reaction.Time,Response,stimulus,modality
5001,computer,0,12.57702661,2,Images/Image1.jpg,Image
5001,computer,1,10.07868837,6,Images/Image2.jpg,Image
5001,computer,2,9.487026726,7,Images/Image3.jpg,Image
5001,computer,3,10.54039102,1,Images/Image4.jpg,Image
5001,computer,4,9.024612878,7,Images/Image5.jpg,Image
5001,computer,5,8.837539519,6,Images/Image6.jpg,Image
5001,computer,6,8.797358127,7,Images/Image7.jpg,Image
5001,computer,7,9.140937337,3,Images/Image8.jpg,Image
5001,computer,8,8.870883816,2,Images/Image9.jpg,Image
5001,computer,9,9.43555176,7,Images/Image10.jpg,Image
5001,computer,10,8.673978809,1,Images/Image11.jpg,Image
5001,computer,11,8.916699026,7,Images/Image12.jpg,Image
5001,computer,12,8.847653524,4,Images/Image13.jpg,Image
5001,computer,13,8.832343552,1,Images/Image14.jpg,Image
5001,computer,14,8.914417178,3,Images/Image15.jpg,Image
5001,computer,15,8.725525039,9,Images/Image16.jpg,Image
5001,computer,16,9.018258957,5,Images/Image17.jpg,Image
5001,computer,17,8.893664694,7,Images/Image18.jpg,Image
5001,computer,18,9.804274991,3,Musics/Music1.wav,Music
5001,computer,19,9.445326347,3,Musics/Music2.wav,Music
5001,computer,20,8.73831954,2,Musics/Music3.wav,Music
5001,computer,21,8.779460674,4,Musics/Music4.wav,Music
5001,computer,22,10.75780434,2,Musics/Music5.wav,Music
5001,computer,23,9.143247578,6,Musics/Music6.wav,Music
5001,computer,24,9.797751386,7,Musics/Music7.wav,Music
5001,computer,25,9.119822022,7,Musics/Music8.wav,Music
5001,computer,26,8.627039953,5,Musics/Music9.wav,Music
5001,computer,27,9.941100597,8,Musics/Music10.wav,Music
5001,computer,28,8.923388897,7,Musics/Music11.wav,Music
5001,computer,29,9.634966043,3,Musics/Music12.wav,Music
5001,computer,30,10.67747676,4,Musics/Music13.wav,Music
5001,computer,31,9.631563731,7,Musics/Music14.wav,Music
5001,computer,32,8.659337971,5,Musics/Music15.wav,Music
5001,computer,33,9.048979401,6,Musics/Music16.wav,Music
5001,computer,34,8.809304602,7,Musics/Music17.wav,Music
5001,computer,35,10.57039752,6,Musics/Music18.wav,Music
5002,computer,0,11.32620744,6,Images/Image1.jpg,Image
5002,computer,1,9.042579558,7,Images/Image2.jpg,Image
5002,computer,2,11.81104641,7,Images/Image3.jpg,Image
5002,computer,3,10.30494229,7,Images/Image4.jpg,Image
5002,computer,4,18.16559178,7,Images/Image5.jpg,Image
5002,computer,5,10.37930668,8,Images/Image6.jpg,Image
5002,computer,6,9.140822179,7,Images/Image7.jpg,Image
5002,computer,7,11.43141683,7,Images/Image8.jpg,Image
5002,computer,8,11.11088553,6,Images/Image9.jpg,Image
5002,computer,9,10.50561119,7,Images/Image10.jpg,Image
5002,computer,10,10.28242892,6,Images/Image11.jpg,Image
5002,computer,11,11.70128157,6,Images/Image12.jpg,Image
5002,computer,12,8.824825659,5,Images/Image13.jpg,Image
5002,computer,13,9.035947548,6,Images/Image14.jpg,Image
5002,computer,14,11.67427569,6,Images/Image15.jpg,Image
5002,computer,15,10.37993428,5,Images/Image16.jpg,Image
5002,computer,16,11.94826519,6,Images/Image17.jpg,Image
5002,computer,17,10.21193224,6,Images/Image18.jpg,Image
5002,computer,18,15.15567979,7,Musics/Music1.wav,Music
5002,computer,19,9.296725178,8,Musics/Music2.wav,Music
5002,computer,20,9.544868776,7,Musics/Music3.wav,Music
5002,computer,21,9.979413689,7,Musics/Music4.wav,Music
5002,computer,22,16.44680098,8,Musics/Music5.wav,Music
5002,computer,23,9.107124659,8,Musics/Music6.wav,Music
5002,computer,24,9.237201334,8,Musics/Music7.wav,Music
5002,computer,25,9.619674451,7,Musics/Music8.wav,Music
5002,computer,26,9.892644667,6,Musics/Music9.wav,Music
5002,computer,27,9.410505699,6,Musics/Music10.wav,Music
5002,computer,28,8.547807517,5,Musics/Music11.wav,Music
5002,computer,29,8.966331341,6,Musics/Music12.wav,Music
5002,computer,30,8.84233285,4,Musics/Music13.wav,Music
5002,computer,31,8.768535821,5,Musics/Music14.wav,Music
5002,computer,32,14.88832197,6,Musics/Music15.wav,Music
5002,computer,33,9.370929039,6,Musics/Music16.wav,Music
5002,computer,34,11.39227196,5,Musics/Music17.wav,Music
5002,computer,35,9.432817375,7,Musics/Music18.wav,Music
5003,computer,0,12.93881825,2,Images/Image1.jpg,Image
5003,computer,1,9.842841341,8,Images/Image2.jpg,Image
5003,computer,2,9.350845185,9,Images/Image3.jpg,Image
5003,computer,3,9.368315371,1,Images/Image4.jpg,Image
5003,computer,4,9.577477621,4,Images/Image5.jpg,Image
5003,computer,5,9.438528078,2,Images/Image6.jpg,Image
5003,computer,6,10.59628205,4,Images/Image7.jpg,Image
5003,computer,7,11.03431513,5,Images/Image8.jpg,Image
5003,computer,8,9.765486245,4,Images/Image9.jpg,Image
5003,computer,9,9.961743059,8,Images/Image10.jpg,Image
5003,computer,10,10.42750752,1,Images/Image11.jpg,Image
5003,computer,11,9.48291562,8,Images/Image12.jpg,Image
5003,computer,12,9.231575568,6,Images/Image13.jpg,Image
5003,computer,13,9.627909995,2,Images/Image14.jpg,Image
5003,computer,14,10.66809383,2,Images/Image15.jpg,Image
5003,computer,15,10.37431217,9,Images/Image16.jpg,Image
5003,computer,16,10.0899069,4,Images/Image17.jpg,Image
5003,computer,17,13.16487004,6,Images/Image18.jpg,Image
5003,computer,18,9.694364125,7,Musics/Music1.wav,Music
5003,computer,19,10.05753844,6,Musics/Music2.wav,Music
5003,computer,20,9.232838523,2,Musics/Music3.wav,Music
5003,computer,21,13.41237549,2,Musics/Music4.wav,Music
5003,computer,22,10.76600519,1,Musics/Music5.wav,Music
5003,computer,23,10.64052254,9,Musics/Music6.wav,Music
5003,computer,24,12.06933202,4,Musics/Music7.wav,Music
5003,computer,25,10.47798998,6,Musics/Music8.wav,Music
5003,computer,26,9.100879475,2,Musics/Music9.wav,Music
5003,computer,27,10.61717641,8,Musics/Music10.wav,Music
5003,computer,28,12.62845337,8,Musics/Music11.wav,Music
5003,computer,29,11.44189399,3,Musics/Music12.wav,Music
5003,computer,30,10.62536259,8,Musics/Music13.wav,Music
5003,computer,31,9.827642876,9,Musics/Music14.wav,Music
5003,computer,32,9.653741255,7,Musics/Music15.wav,Music
5003,computer,33,10.15338094,6,Musics/Music16.wav,Music
5003,computer,34,9.175698924,8,Musics/Music17.wav,Music
5003,computer,35,9.112975396,8,Musics/Music18.wav,Music
5004,computer,0,10.7242196,4,Images/Image1.jpg,Image
5004,computer,1,10.7015108,6,Images/Image2.jpg,Image
5004,computer,2,8.9024313,6,Images/Image3.jpg,Image
5004,computer,3,9.7121563,2,Images/Image4.jpg,Image
5004,computer,4,10.448587,4,Images/Image5.jpg,Image
5004,computer,5,9.8186835,2,Images/Image6.jpg,Image
5004,computer,6,9.1431279,4,Images/Image7.jpg,Image
5004,computer,7,9.0879974,4,Images/Image8.jpg,Image
5004,computer,8,10.8109299,2,Images/Image9.jpg,Image
5004,computer,9,9.3293041,6,Images/Image10.jpg,Image
5004,computer,10,9.3385665,2,Images/Image11.jpg,Image
5004,computer,11,10.3226043,6,Images/Image12.jpg,Image
5004,computer,12,9.2988431,3,Images/Image13.jpg,Image
5004,computer,13,9.2658718,2,Images/Image14.jpg,Image
5004,computer,14,9.0027874,1,Images/Image15.jpg,Image
5004,computer,15,9.6515761,7,Images/Image16.jpg,Image
5004,computer,16,9.7130771,4,Images/Image17.jpg,Image
5004,computer,17,9.5566852,6,Images/Image18.jpg,Image
5004,computer,18,12.6243599,4,Musics/Music1.wav,Music
5004,computer,19,9.8905306,4,Musics/Music2.wav,Music
5004,computer,20,10.2519899,5,Musics/Music3.wav,Music
5004,computer,21,9.5590097,5,Musics/Music4.wav,Music
5004,computer,22,12.3400482,2,Musics/Music5.wav,Music
5004,computer,23,10.0626489,6,Musics/Music6.wav,Music
5004,computer,24,9.2685436,6,Musics/Music7.wav,Music
5004,computer,25,10.7665913,4,Musics/Music8.wav,Music
5004,computer,26,9.1114854,6,Musics/Music9.wav,Music
5004,computer,27,9.3603674,7,Musics/Music10.wav,Music
5004,computer,28,9.1808757,7,Musics/Music11.wav,Music
5004,computer,29,9.0086748,8,Musics/Music12.wav,Music
5004,computer,30,9.2603108,7,Musics/Music13.wav,Music
5004,computer,31,9.0277719,9,Musics/Music14.wav,Music
5004,computer,32,9.6197908,7,Musics/Music15.wav,Music
5004,computer,33,9.3970372,7,Musics/Music16.wav,Music
5004,computer,34,9.3766056,6,Musics/Music17.wav,Music
5004,computer,35,9.4568077,7,Musics/Music18.wav,Music
5005,computer,0,19.17828304,3,Images/Image1.jpg,Image
5005,computer,1,9.373729764,6,Images/Image2.jpg,Image
5005,computer,2,15.65022875,4,Images/Image3.jpg,Image
5005,computer,3,12.35801848,3,Images/Image4.jpg,Image
5005,computer,4,10.43559017,6,Images/Image5.jpg,Image
5005,computer,5,9.324640283,4,Images/Image6.jpg,Image
5005,computer,6,9.951567232,4,Images/Image7.jpg,Image
5005,computer,7,9.016733587,6,Images/Image8.jpg,Image
5005,computer,8,9.340741487,2,Images/Image9.jpg,Image
5005,computer,9,10.21587925,3,Images/Image10.jpg,Image
5005,computer,10,9.555342389,3,Images/Image11.jpg,Image
5005,computer,11,9.185937728,6,Images/Image12.jpg,Image
5005,computer,12,9.139061663,5,Images/Image13.jpg,Image
5005,computer,13,8.90917076,6,Images/Image14.jpg,Image
5005,computer,14,9.54137237,3,Images/Image15.jpg,Image
5005,computer,15,9.205805053,7,Images/Image16.jpg,Image
5005,computer,16,9.56638501,6,Images/Image17.jpg,Image
5005,computer,17,9.152660338,6,Images/Image18.jpg,Image
5005,computer,18,9.448000084,4,Musics/Music1.wav,Music
5005,computer,19,9.226054284,6,Musics/Music2.wav,Music
5005,computer,20,9.998552049,6,Musics/Music3.wav,Music
5005,computer,21,17.21656261,4,Musics/Music4.wav,Music
5005,computer,22,10.05284348,3,Musics/Music5.wav,Music
5005,computer,23,9.144161815,6,Musics/Music6.wav,Music
5005,computer,24,9.073399309,7,Musics/Music7.wav,Music
5005,computer,25,9.815629266,3,Musics/Music8.wav,Music
5005,computer,26,8.964785909,7,Musics/Music9.wav,Music
5005,computer,27,9.049665284,7,Musics/Music10.wav,Music
5005,computer,28,9.499577966,8,Musics/Music11.wav,Music
5005,computer,29,9.205031322,8,Musics/Music12.wav,Music
5005,computer,30,8.862939059,7,Musics/Music13.wav,Music
5005,computer,31,9.6322937,8,Musics/Music14.wav,Music
5005,computer,32,9.129898421,7,Musics/Music15.wav,Music
5005,computer,33,11.24994005,4,Musics/Music16.wav,Music
5005,computer,34,9.426077407,6,Musics/Music17.wav,Music
5005,computer,35,11.56805464,4,Musics/Music18.wav,Music
5006,computer,0,9.467661441,2,Images/Image1.jpg,Image
5006,computer,1,9.907949572,8,Images/Image2.jpg,Image
5006,computer,2,8.980280797,6,Images/Image3.jpg,Image
5006,computer,3,9.394094603,2,Images/Image4.jpg,Image
5006,computer,4,8.775999948,6,Images/Image5.jpg,Image
5006,computer,5,9.16486611,2,Images/Image6.jpg,Image
5006,computer,6,10.09628296,4,Images/Image7.jpg,Image
5006,computer,7,9.124798528,7,Images/Image8.jpg,Image
5006,computer,8,10.42622794,6,Images/Image9.jpg,Image
5006,computer,9,8.689017651,8,Images/Image10.jpg,Image
5006,computer,10,9.418030442,7,Images/Image11.jpg,Image
5006,computer,11,10.97302077,7,Images/Image12.jpg,Image
5006,computer,12,11.07926015,3,Images/Image13.jpg,Image
5006,computer,13,16.65477339,2,Images/Image14.jpg,Image
5006,computer,14,10.01601063,8,Images/Image15.jpg,Image
5006,computer,15,9.469838926,7,Images/Image16.jpg,Image
5006,computer,16,8.962314465,8,Images/Image17.jpg,Image
5006,computer,17,9.438391388,7,Images/Image18.jpg,Image
5006,computer,18,9.79549435,6,Musics/Music1.wav,Music
5006,computer,19,9.458891656,5,Musics/Music2.wav,Music
5006,computer,20,8.901006635,5,Musics/Music3.wav,Music
5006,computer,21,10.85910004,4,Musics/Music4.wav,Music
5006,computer,22,8.898332849,2,Musics/Music5.wav,Music
5006,computer,23,8.67741876,8,Musics/Music6.wav,Music
5006,computer,24,9.164772084,7,Musics/Music7.wav,Music
5006,computer,25,10.67710004,6,Musics/Music8.wav,Music
5006,computer,26,8.839506474,4,Musics/Music9.wav,Music
5006,computer,27,11.36863391,3,Musics/Music10.wav,Music
5006,computer,28,19.19685115,7,Musics/Music11.wav,Music
5006,computer,29,11.73620764,7,Musics/Music12.wav,Music
5006,computer,30,8.845391148,7,Musics/Music13.wav,Music
5006,computer,31,10.19159373,9,Musics/Music14.wav,Music
5006,computer,32,8.674085355,7,Musics/Music15.wav,Music
5006,computer,33,9.32240699,6,Musics/Music16.wav,Music
5006,computer,34,9.298096827,7,Musics/Music17.wav,Music
5006,computer,35,8.46750498,5,Musics/Music18.wav,Music
5007,computer,0,8.869637777,2,Images/Image1.jpg,Image
5007,computer,1,8.940306254,7,Images/Image2.jpg,Image
5007,computer,2,9.602759048,6,Images/Image3.jpg,Image
5007,computer,3,9.079852971,3,Images/Image4.jpg,Image
5007,computer,4,8.78791876,2,Images/Image5.jpg,Image
5007,computer,5,8.676433308,6,Images/Image6.jpg,Image
5007,computer,6,9.129163803,7,Images/Image7.jpg,Image
5007,computer,7,9.264443972,8,Images/Image8.jpg,Image
5007,computer,8,9.031935501,2,Images/Image9.jpg,Image
5007,computer,9,9.600728178,3,Images/Image10.jpg,Image
5007,computer,10,8.697297322,3,Images/Image11.jpg,Image
5007,computer,11,10.11312145,7,Images/Image12.jpg,Image
5007,computer,12,8.748534995,2,Images/Image13.jpg,Image
5007,computer,13,9.202662578,1,Images/Image14.jpg,Image
5007,computer,14,9.255214714,6,Images/Image15.jpg,Image
5007,computer,15,8.702906112,8,Images/Image16.jpg,Image
5007,computer,16,8.806514677,3,Images/Image17.jpg,Image
5007,computer,17,8.962129675,2,Images/Image18.jpg,Image
5007,computer,18,8.504319102,7,Musics/Music1.wav,Music
5007,computer,19,8.817559483,8,Musics/Music2.wav,Music
5007,computer,20,11.79883228,6,Musics/Music3.wav,Music
5007,computer,21,9.435417823,7,Musics/Music4.wav,Music
5007,computer,22,10.5344253,1,Musics/Music5.wav,Music
5007,computer,23,8.798428536,3,Musics/Music6.wav,Music
5007,computer,24,8.322594418,5,Musics/Music7.wav,Music
5007,computer,25,11.50882412,3,Musics/Music8.wav,Music
5007,computer,26,8.596007947,6,Musics/Music9.wav,Music
5007,computer,27,8.581858673,6,Musics/Music10.wav,Music
5007,computer,28,9.208013711,3,Musics/Music11.wav,Music
5007,computer,29,8.660551264,7,Musics/Music12.wav,Music
5007,computer,30,8.714915059,3,Musics/Music13.wav,Music
5007,computer,31,8.681400322,6,Musics/Music14.wav,Music
5007,computer,32,8.527971339,7,Musics/Music15.wav,Music
5007,computer,33,8.458466849,8,Musics/Music16.wav,Music
5007,computer,34,9.099464987,9,Musics/Music17.wav,Music
5007,computer,35,9.112094024,3,Musics/Music18.wav,Music
5009,computer,0,10.66192748,6,Images/Image1.jpg,Image
5009,computer,1,9.374771981,5,Images/Image2.jpg,Image
5009,computer,2,8.834241158,4,Images/Image3.jpg,Image
5009,computer,3,8.694062728,5,Images/Image4.jpg,Image
5009,computer,4,10.53115748,3,Images/Image5.jpg,Image
5009,computer,5,8.92472799,3,Images/Image6.jpg,Image
5009,computer,6,9.199916755,5,Images/Image7.jpg,Image
5009,computer,7,9.098521601,7,Images/Image8.jpg,Image
5009,computer,8,8.982703669,6,Images/Image9.jpg,Image
5009,computer,9,9.059992865,4,Images/Image10.jpg,Image
5009,computer,10,12.68130297,8,Images/Image11.jpg,Image
5009,computer,11,9.389577952,5,Images/Image12.jpg,Image
5009,computer,12,9.240713009,4,Images/Image13.jpg,Image
5009,computer,13,9.527882124,7,Images/Image14.jpg,Image
5009,computer,14,9.289315179,4,Images/Image15.jpg,Image
5009,computer,15,9.435320445,7,Images/Image16.jpg,Image
5009,computer,16,9.106922873,4,Images/Image17.jpg,Image
5009,computer,17,9.389700441,3,Images/Image18.jpg,Image
5009,computer,18,9.306378309,6,Musics/Music1.wav,Music
5009,computer,19,9.128506937,4,Musics/Music2.wav,Music
5009,computer,20,8.675563916,4,Musics/Music3.wav,Music
5009,computer,21,8.95846752,5,Musics/Music4.wav,Music
5009,computer,22,9.763210177,1,Musics/Music5.wav,Music
5009,computer,23,11.0988359,6,Musics/Music6.wav,Music
5009,computer,24,10.6596858,5,Musics/Music7.wav,Music
5009,computer,25,11.10321351,4,Musics/Music8.wav,Music
5009,computer,26,9.249822612,7,Musics/Music9.wav,Music
5009,computer,27,10.53423049,7,Musics/Music10.wav,Music
5009,computer,28,9.367782691,8,Musics/Music11.wav,Music
5009,computer,29,9.969308374,6,Musics/Music12.wav,Music
5009,computer,30,9.183985828,7,Musics/Music13.wav,Music
5009,computer,31,8.975862182,5,Musics/Music14.wav,Music
5009,computer,32,9.355411361,6,Musics/Music15.wav,Music
5009,computer,33,9.90758691,3,Musics/Music16.wav,Music
5009,computer,34,14.2510679,3,Musics/Music17.wav,Music
5009,computer,35,10.12680283,6,Musics/Music18.wav,Music
5010,computer,0,9.067542865,2,Images/Image1.jpg,Image
5010,computer,1,8.753078283,4,Images/Image2.jpg,Image
5010,computer,2,8.756654922,6,Images/Image3.jpg,Image
5010,computer,3,8.644553834,3,Images/Image4.jpg,Image
5010,computer,4,9.010593572,2,Images/Image5.jpg,Image
5010,computer,5,8.660019829,2,Images/Image6.jpg,Image
5010,computer,6,8.948754306,4,Images/Image7.jpg,Image
5010,computer,7,8.63583544,5,Images/Image8.jpg,Image
5010,computer,8,8.46783471,1,Images/Image9.jpg,Image
5010,computer,9,8.823512249,4,Images/Image10.jpg,Image
5010,computer,10,8.733742063,2,Images/Image11.jpg,Image
5010,computer,11,8.883717858,6,Images/Image12.jpg,Image
5010,computer,12,8.915275861,4,Images/Image13.jpg,Image
5010,computer,13,8.746274741,3,Images/Image14.jpg,Image
5010,computer,14,8.77693543,2,Images/Image15.jpg,Image
5010,computer,15,8.641851617,8,Images/Image16.jpg,Image
5010,computer,16,8.601317102,2,Images/Image17.jpg,Image
5010,computer,17,8.720174844,4,Images/Image18.jpg,Image
5010,computer,18,8.681904853,6,Musics/Music1.wav,Music
5010,computer,19,8.891070906,6,Musics/Music2.wav,Music
5010,computer,20,8.552922348,8,Musics/Music3.wav,Music
5010,computer,21,8.843895338,3,Musics/Music4.wav,Music
5010,computer,22,8.606077832,1,Musics/Music5.wav,Music
5010,computer,23,8.672906846,5,Musics/Music6.wav,Music
5010,computer,24,8.716074054,7,Musics/Music7.wav,Music
5010,computer,25,8.795609675,8,Musics/Music8.wav,Music
5010,computer,26,8.489782549,7,Musics/Music9.wav,Music
5010,computer,27,8.479734502,2,Musics/Music10.wav,Music
5010,computer,28,8.709856909,2,Musics/Music11.wav,Music
5010,computer,29,8.422741117,5,Musics/Music12.wav,Music
5010,computer,30,8.734672559,6,Musics/Music13.wav,Music
5010,computer,31,8.663003131,5,Musics/Music14.wav,Music
5010,computer,32,8.657853301,7,Musics/Music15.wav,Music
5010,computer,33,8.848873114,4,Musics/Music16.wav,Music
5010,computer,34,8.377835168,7,Musics/Music17.wav,Music
5010,computer,35,8.193866069,7,Musics/Music18.wav,Music
5011,computer,0,9.725368798,4,Images/Image1.jpg,Image
5011,computer,1,9.503607625,5,Images/Image2.jpg,Image
5011,computer,2,8.869298493,6,Images/Image3.jpg,Image
5011,computer,3,8.559744575,6,Images/Image4.jpg,Image
5011,computer,4,9.324110688,6,Images/Image5.jpg,Image
5011,computer,5,9.116765565,4,Images/Image6.jpg,Image
5011,computer,6,9.322429243,6,Images/Image7.jpg,Image
5011,computer,7,8.841713875,6,Images/Image8.jpg,Image
5011,computer,8,8.693953118,5,Images/Image9.jpg,Image
5011,computer,9,10.08297815,6,Images/Image10.jpg,Image
5011,computer,10,11.77087996,6,Images/Image11.jpg,Image
5011,computer,11,9.595035131,5,Images/Image12.jpg,Image
5011,computer,12,8.891586908,4,Images/Image13.jpg,Image
5011,computer,13,10.39680178,6,Images/Image14.jpg,Image
5011,computer,14,8.826101891,5,Images/Image15.jpg,Image
5011,computer,15,10.80109911,6,Images/Image16.jpg,Image
5011,computer,16,9.061755923,4,Images/Image17.jpg,Image
5011,computer,17,8.927887695,5,Images/Image18.jpg,Image
5011,computer,18,10.37990275,5,Musics/Music1.wav,Music
5011,computer,19,8.721172445,6,Musics/Music2.wav,Music
5011,computer,20,8.609627116,7,Musics/Music3.wav,Music
5011,computer,21,8.699122225,5,Musics/Music4.wav,Music
5011,computer,22,9.155529626,7,Musics/Music5.wav,Music
5011,computer,23,9.670073826,4,Musics/Music6.wav,Music
5011,computer,24,9.199801699,6,Musics/Music7.wav,Music
5011,computer,25,9.364768107,6,Musics/Music8.wav,Music
5011,computer,26,8.63274643,5,Musics/Music9.wav,Music
5011,computer,27,8.654606373,3,Musics/Music10.wav,Music
5011,computer,28,9.661005616,2,Musics/Music11.wav,Music
5011,computer,29,8.93572158,4,Musics/Music12.wav,Music
5011,computer,30,10.07716115,4,Musics/Music13.wav,Music
5011,computer,31,8.780399048,5,Musics/Music14.wav,Music
5011,computer,32,9.705640906,6,Musics/Music15.wav,Music
5011,computer,33,8.740547598,6,Musics/Music16.wav,Music
5011,computer,34,9.012461832,4,Musics/Music17.wav,Music
5011,computer,35,8.686262808,6,Musics/Music18.wav,Music
5012,computer,0,15.59122654,3,Images/Image1.jpg,Image
5012,computer,1,13.15866786,7,Images/Image2.jpg,Image
5012,computer,2,9.31536615,5,Images/Image3.jpg,Image
5012,computer,3,9.617215959,1,Images/Image4.jpg,Image
5012,computer,4,11.35157588,6,Images/Image5.jpg,Image
5012,computer,5,16.16028535,3,Images/Image6.jpg,Image
5012,computer,6,15.21486327,6,Images/Image7.jpg,Image
5012,computer,7,10.70302213,4,Images/Image8.jpg,Image
5012,computer,8,10.42932658,4,Images/Image9.jpg,Image
5012,computer,9,12.0108887,6,Images/Image10.jpg,Image
5012,computer,10,12.84103505,7,Images/Image11.jpg,Image
5012,computer,11,9.217673715,8,Images/Image12.jpg,Image
5012,computer,12,21.23393764,4,Images/Image13.jpg,Image
5012,computer,13,10.97967999,2,Images/Image14.jpg,Image
5012,computer,14,17.97980896,5,Images/Image15.jpg,Image
5012,computer,15,9.815944701,7,Images/Image16.jpg,Image
5012,computer,16,10.4502927,4,Images/Image17.jpg,Image
5012,computer,17,9.558885261,8,Images/Image18.jpg,Image
5012,computer,18,14.59402946,7,Musics/Music1.wav,Music
5012,computer,19,10.10672452,8,Musics/Music2.wav,Music
5012,computer,20,10.1070817,3,Musics/Music3.wav,Music
5012,computer,21,9.127679245,9,Musics/Music4.wav,Music
5012,computer,22,21.06076761,4,Musics/Music5.wav,Music
5012,computer,23,18.43433876,8,Musics/Music6.wav,Music
5012,computer,24,25.89624733,8,Musics/Music7.wav,Music
5012,computer,25,19.91033397,5,Musics/Music8.wav,Music
5012,computer,26,23.13991494,8,Musics/Music9.wav,Music
5012,computer,27,11.16811156,8,Musics/Music10.wav,Music
5012,computer,28,11.84684547,9,Musics/Music11.wav,Music
5012,computer,29,8.754634919,9,Musics/Music12.wav,Music
5012,computer,30,10.21329583,7,Musics/Music13.wav,Music
5012,computer,31,9.375490921,8,Musics/Music14.wav,Music
5012,computer,32,9.251024914,7,Musics/Music15.wav,Music
5012,computer,33,9.32979338,8,Musics/Music16.wav,Music
5012,computer,34,9.34082624,7,Musics/Music17.wav,Music
5012,computer,35,8.917184317,8,Musics/Music18.wav,Music
5013,computer,0,9.2629179,3,Images/Image1.jpg,Image
5013,computer,1,9.1455409,7,Images/Image2.jpg,Image
5013,computer,2,9.2115466,8,Images/Image3.jpg,Image
5013,computer,3,9.8777162,3,Images/Image4.jpg,Image
5013,computer,4,9.3463415,6,Images/Image5.jpg,Image
5013,computer,5,9.1124537,2,Images/Image6.jpg,Image
5013,computer,6,9.0107697,7,Images/Image7.jpg,Image
5013,computer,7,8.74564,7,Images/Image8.jpg,Image
5013,computer,8,9.1119758,6,Images/Image9.jpg,Image
5013,computer,9,8.9455409,8,Images/Image10.jpg,Image
5013,computer,10,8.9450354,6,Images/Image11.jpg,Image
5013,computer,11,9.0414873,8,Images/Image12.jpg,Image
5013,computer,12,8.9784315,6,Images/Image13.jpg,Image
5013,computer,13,8.7439046,5,Images/Image14.jpg,Image
5013,computer,14,8.9785694,3,Images/Image15.jpg,Image
5013,computer,15,8.9804492,8,Images/Image16.jpg,Image
5013,computer,16,12.9121576,3,Images/Image17.jpg,Image
5013,computer,17,8.7800511,6,Images/Image18.jpg,Image
5013,computer,18,14.206496,6,Musics/Music1.wav,Music
5013,computer,19,8.8784316,7,Musics/Music2.wav,Music
5013,computer,20,8.9923836,3,Musics/Music3.wav,Music
5013,computer,21,9.4928232,5,Musics/Music4.wav,Music
5013,computer,22,8.9776105,1,Musics/Music5.wav,Music
5013,computer,23,8.9589781,7,Musics/Music6.wav,Music
5013,computer,24,8.8576662,6,Musics/Music7.wav,Music
5013,computer,25,8.9571755,3,Musics/Music8.wav,Music
5013,computer,26,9.1285378,7,Musics/Music9.wav,Music
5013,computer,27,10.7961511,7,Musics/Music10.wav,Music
5013,computer,28,9.1630336,8,Musics/Music11.wav,Music
5013,computer,29,8.659345,9,Musics/Music12.wav,Music
5013,computer,30,8.56368,8,Musics/Music13.wav,Music
5013,computer,31,8.5625223,9,Musics/Music14.wav,Music
5013,computer,32,8.897732,7,Musics/Music15.wav,Music
5013,computer,33,11.7631916,6,Musics/Music16.wav,Music
5013,computer,34,9.6279354,8,Musics/Music17.wav,Music
5013,computer,35,8.8961145,5,Musics/Music18.wav,Music
5014,computer,0,16.23991665,6,Images/Image1.jpg,Image
5014,computer,1,9.285535499,8,Images/Image2.jpg,Image
5014,computer,2,9.00661966,8,Images/Image3.jpg,Image
5014,computer,3,11.80516705,4,Images/Image4.jpg,Image
5014,computer,4,8.599309339,8,Images/Image5.jpg,Image
5014,computer,5,9.299128101,5,Images/Image6.jpg,Image
5014,computer,6,10.72597816,6,Images/Image7.jpg,Image
5014,computer,7,9.047140893,6,Images/Image8.jpg,Image
5014,computer,8,8.661958186,3,Images/Image9.jpg,Image
5014,computer,9,10.03288679,6,Images/Image10.jpg,Image
5014,computer,10,8.709220349,8,Images/Image11.jpg,Image
5014,computer,11,8.923774377,9,Images/Image12.jpg,Image
5014,computer,12,10.79643922,6,Images/Image13.jpg,Image
5014,computer,13,9.363046678,4,Images/Image14.jpg,Image
5014,computer,14,8.701975318,3,Images/Image15.jpg,Image
5014,computer,15,10.3976823,8,Images/Image16.jpg,Image
5014,computer,16,9.133626374,5,Images/Image17.jpg,Image
5014,computer,17,8.795911285,8,Images/Image18.jpg,Image
5014,computer,18,13.82893083,6,Musics/Music1.wav,Music
5014,computer,19,9.05126295,8,Musics/Music2.wav,Music
5014,computer,20,8.743513459,7,Musics/Music3.wav,Music
5014,computer,21,10.61914702,7,Musics/Music4.wav,Music
5014,computer,22,8.914141381,4,Musics/Music5.wav,Music
5014,computer,23,9.084535175,8,Musics/Music6.wav,Music
5014,computer,24,8.395124123,8,Musics/Music7.wav,Music
5014,computer,25,10.374852,4,Musics/Music8.wav,Music
5014,computer,26,9.597024342,7,Musics/Music9.wav,Music
5014,computer,27,8.950630511,7,Musics/Music10.wav,Music
5014,computer,28,9.288750284,6,Musics/Music11.wav,Music
5014,computer,29,8.835956907,8,Musics/Music12.wav,Music
5014,computer,30,8.795485943,8,Musics/Music13.wav,Music
5014,computer,31,9.263373175,9,Musics/Music14.wav,Music
5014,computer,32,8.771709197,7,Musics/Music15.wav,Music
5014,computer,33,9.188072169,6,Musics/Music16.wav,Music
5014,computer,34,8.552793495,8,Musics/Music17.wav,Music
5014,computer,35,8.915242106,5,Musics/Music18.wav,Music
5015,computer,0,9.6519998,3,Images/Image1.jpg,Image
5015,computer,1,9.0136801,8,Images/Image2.jpg,Image
5015,computer,2,8.756096,8,Images/Image3.jpg,Image
5015,computer,3,8.5291918,3,Images/Image4.jpg,Image
5015,computer,4,8.730268,9,Images/Image5.jpg,Image
5015,computer,5,8.9459862,2,Images/Image6.jpg,Image
5015,computer,6,8.4464778,9,Images/Image7.jpg,Image
5015,computer,7,8.6302955,8,Images/Image8.jpg,Image
5015,computer,8,8.67995,4,Images/Image9.jpg,Image
5015,computer,9,8.8630027,9,Images/Image10.jpg,Image
5015,computer,10,8.6305282,2,Images/Image11.jpg,Image
5015,computer,11,9.4145636,6,Images/Image12.jpg,Image
5015,computer,12,8.7126097,4,Images/Image13.jpg,Image
5015,computer,13,8.7791804,1,Images/Image14.jpg,Image
5015,computer,14,8.9319118,2,Images/Image15.jpg,Image
5015,computer,15,8.7148,8,Images/Image16.jpg,Image
5015,computer,16,8.798024,1,Images/Image17.jpg,Image
5015,computer,17,11.2297151,4,Images/Image18.jpg,Image
5015,computer,18,9.3599962,6,Musics/Music1.wav,Music
5015,computer,19,8.588468,6,Musics/Music2.wav,Music
5015,computer,20,15.1102212,4,Musics/Music3.wav,Music
5015,computer,21,9.0531778,3,Musics/Music4.wav,Music
5015,computer,22,9.2179975,3,Musics/Music5.wav,Music
5015,computer,23,8.9680033,7,Musics/Music6.wav,Music
5015,computer,24,9.8698566,6,Musics/Music7.wav,Music
5015,computer,25,9.7997237,4,Musics/Music8.wav,Music
5015,computer,26,9.2656377,7,Musics/Music9.wav,Music
5015,computer,27,8.5342302,8,Musics/Music10.wav,Music
5015,computer,28,8.9363965,7,Musics/Music11.wav,Music
5015,computer,29,8.6695853,8,Musics/Music12.wav,Music
5015,computer,30,8.9195133,6,Musics/Music13.wav,Music
5015,computer,31,8.5698067,8,Musics/Music14.wav,Music
5015,computer,32,9.1847296,5,Musics/Music15.wav,Music
5015,computer,33,8.8326539,7,Musics/Music16.wav,Music
5015,computer,34,8.9025423,5,Musics/Music17.wav,Music
5015,computer,35,8.6220804,4,Musics/Music18.wav,Music
5016,computer,0,12.71351518,6,Images/Image1.jpg,Image
5016,computer,1,20.56237708,5,Images/Image2.jpg,Image
5016,computer,2,30.56185546,5,Images/Image3.jpg,Image
5016,computer,3,8.804542671,4,Images/Image4.jpg,Image
5016,computer,4,10.26385239,5,Images/Image5.jpg,Image
5016,computer,5,9.31192887,4,Images/Image6.jpg,Image
5016,computer,6,9.693251965,4,Images/Image7.jpg,Image
5016,computer,7,9.373719921,3,Images/Image8.jpg,Image
5016,computer,8,9.440211991,3,Images/Image9.jpg,Image
5016,computer,9,8.717355973,4,Images/Image10.jpg,Image
5016,computer,10,8.501882776,5,Images/Image11.jpg,Image
5016,computer,11,10.96462785,8,Images/Image12.jpg,Image
5016,computer,12,10.43397386,4,Images/Image13.jpg,Image
5016,computer,13,9.36049325,4,Images/Image14.jpg,Image
5016,computer,14,10.39900942,4,Images/Image15.jpg,Image
5016,computer,15,8.869204405,4,Images/Image16.jpg,Image
5016,computer,16,8.471516921,4,Images/Image17.jpg,Image
5016,computer,17,8.48176957,5,Images/Image18.jpg,Image
5016,computer,18,9.542940074,7,Musics/Music1.wav,Music
5016,computer,19,11.52536664,6,Musics/Music2.wav,Music
5016,computer,20,10.49620156,7,Musics/Music3.wav,Music
5016,computer,21,9.260466595,7,Musics/Music4.wav,Music
5016,computer,22,8.963297544,5,Musics/Music5.wav,Music
5016,computer,23,8.935327236,7,Musics/Music6.wav,Music
5016,computer,24,9.02512504,7,Musics/Music7.wav,Music
5016,computer,25,8.510890097,7,Musics/Music8.wav,Music
5016,computer,26,9.058047668,3,Musics/Music9.wav,Music
5016,computer,27,9.108189932,7,Musics/Music10.wav,Music
5016,computer,28,9.426440315,8,Musics/Music11.wav,Music
5016,computer,29,9.255516963,8,Musics/Music12.wav,Music
5016,computer,30,10.45929075,6,Musics/Music13.wav,Music
5016,computer,31,8.686453355,6,Musics/Music14.wav,Music
5016,computer,32,10.2609851,8,Musics/Music15.wav,Music
5016,computer,33,8.520217121,6,Musics/Music16.wav,Music
5016,computer,34,8.789791323,7,Musics/Music17.wav,Music
5016,computer,35,9.020893701,8,Musics/Music18.wav,Music
5017,computer,0,32.58254669,8,Images/Image1.jpg,Image
5017,computer,1,12.9519999,3,Images/Image2.jpg,Image
5017,computer,2,10.2537896,9,Images/Image3.jpg,Image
5017,computer,3,10.57827799,5,Images/Image4.jpg,Image
5017,computer,4,9.669370433,9,Images/Image5.jpg,Image
5017,computer,5,15.15254748,4,Images/Image6.jpg,Image
5017,computer,6,10.99521607,7,Images/Image7.jpg,Image
5017,computer,7,9.996194779,8,Images/Image8.jpg,Image
5017,computer,8,10.40940291,3,Images/Image9.jpg,Image
5017,computer,9,10.12920527,7,Images/Image10.jpg,Image
5017,computer,10,12.04502187,4,Images/Image11.jpg,Image
5017,computer,11,10.13560419,5,Images/Image12.jpg,Image
5017,computer,12,13.11742424,3,Images/Image13.jpg,Image
5017,computer,13,9.412847842,2,Images/Image14.jpg,Image
5017,computer,14,10.43264006,3,Images/Image15.jpg,Image
5017,computer,15,10.51939235,4,Images/Image16.jpg,Image
5017,computer,16,9.227693246,4,Images/Image17.jpg,Image
5017,computer,17,9.717951715,6,Images/Image18.jpg,Image
5017,computer,18,11.15488757,5,Musics/Music1.wav,Music
5017,computer,19,9.363715857,9,Musics/Music2.wav,Music
5017,computer,20,9.816421477,7,Musics/Music3.wav,Music
5017,computer,21,10.55878634,3,Musics/Music4.wav,Music
5017,computer,22,11.33946816,5,Musics/Music5.wav,Music
5017,computer,23,10.31070473,8,Musics/Music6.wav,Music
5017,computer,24,15.05037353,5,Musics/Music7.wav,Music
5017,computer,25,10.23328292,3,Musics/Music8.wav,Music
5017,computer,26,12.17997431,5,Musics/Music9.wav,Music
5017,computer,27,12.34875974,6,Musics/Music10.wav,Music
5017,computer,28,12.29181008,6,Musics/Music11.wav,Music
5017,computer,29,9.862935596,8,Musics/Music12.wav,Music
5017,computer,30,10.46300258,7,Musics/Music13.wav,Music
5017,computer,31,9.065473926,7,Musics/Music14.wav,Music
5017,computer,32,10.29817807,8,Musics/Music15.wav,Music
5017,computer,33,10.49884198,6,Musics/Music16.wav,Music
5017,computer,34,10.40177606,4,Musics/Music17.wav,Music
5017,computer,35,11.56432274,6,Musics/Music18.wav,Music
5018,computer,0,9.463179776,2,Images/Image1.jpg,Image
5018,computer,1,11.66167481,5,Images/Image2.jpg,Image
5018,computer,2,10.39735011,4,Images/Image3.jpg,Image
5018,computer,3,9.683777904,2,Images/Image4.jpg,Image
5018,computer,4,12.41991002,7,Images/Image5.jpg,Image
5018,computer,5,9.474944189,3,Images/Image6.jpg,Image
5018,computer,6,8.998352645,5,Images/Image7.jpg,Image
5018,computer,7,9.849812483,7,Images/Image8.jpg,Image
5018,computer,8,9.636430749,2,Images/Image9.jpg,Image
5018,computer,9,8.999688008,5,Images/Image10.jpg,Image
5018,computer,10,9.709930633,1,Images/Image11.jpg,Image
5018,computer,11,10.05304588,5,Images/Image12.jpg,Image
5018,computer,12,9.667537739,3,Images/Image13.jpg,Image
5018,computer,13,10.24734187,6,Images/Image14.jpg,Image
5018,computer,14,13.25248372,6,Images/Image15.jpg,Image
5018,computer,15,9.42559413,7,Images/Image16.jpg,Image
5018,computer,16,9.258426424,3,Images/Image17.jpg,Image
5018,computer,17,9.074570137,6,Images/Image18.jpg,Image
5018,computer,18,10.73813879,6,Musics/Music1.wav,Music
5018,computer,19,13.59671545,6,Musics/Music2.wav,Music
5018,computer,20,18.9778421,6,Musics/Music3.wav,Music
5018,computer,21,10.44197343,5,Musics/Music4.wav,Music
5018,computer,22,9.787077679,4,Musics/Music5.wav,Music
5018,computer,23,9.956634725,7,Musics/Music6.wav,Music
5018,computer,24,10.98415961,6,Musics/Music7.wav,Music
5018,computer,25,11.72416235,3,Musics/Music8.wav,Music
5018,computer,26,10.14166322,6,Musics/Music9.wav,Music
5018,computer,27,10.26616897,8,Musics/Music10.wav,Music
5018,computer,28,9.555896134,6,Musics/Music11.wav,Music
5018,computer,29,10.09776503,7,Musics/Music12.wav,Music
5018,computer,30,10.67715316,6,Musics/Music13.wav,Music
5018,computer,31,9.850438457,7,Musics/Music14.wav,Music
5018,computer,32,16.43596786,4,Musics/Music15.wav,Music
5018,computer,33,11.18582419,5,Musics/Music16.wav,Music
5018,computer,34,12.62129809,7,Musics/Music17.wav,Music
5018,computer,35,9.634084773,3,Musics/Music18.wav,Music
5019,computer,0,9.970937145,3,Images/Image1.jpg,Image
5019,computer,1,9.349998152,6,Images/Image2.jpg,Image
5019,computer,2,8.848796128,5,Images/Image3.jpg,Image
5019,computer,3,8.586645715,5,Images/Image4.jpg,Image
5019,computer,4,8.761186912,6,Images/Image5.jpg,Image
5019,computer,5,8.918772629,4,Images/Image6.jpg,Image
5019,computer,6,8.862869464,7,Images/Image7.jpg,Image
5019,computer,7,8.971679615,8,Images/Image8.jpg,Image
5019,computer,8,10.17104577,4,Images/Image9.jpg,Image
5019,computer,9,8.531005204,5,Images/Image10.jpg,Image
5019,computer,10,8.890826135,5,Images/Image11.jpg,Image
5019,computer,11,9.163751914,4,Images/Image12.jpg,Image
5019,computer,12,9.624634618,5,Images/Image13.jpg,Image
5019,computer,13,8.47115052,5,Images/Image14.jpg,Image
5019,computer,14,9.359012477,3,Images/Image15.jpg,Image
5019,computer,15,8.812171146,6,Images/Image16.jpg,Image
5019,computer,16,8.938883759,3,Images/Image17.jpg,Image
5019,computer,17,9.04793631,5,Images/Image18.jpg,Image
5019,computer,18,10.0225721,3,Musics/Music1.wav,Music
5019,computer,19,9.165103323,6,Musics/Music2.wav,Music
5019,computer,20,8.943098419,5,Musics/Music3.wav,Music
5019,computer,21,10.03535254,6,Musics/Music4.wav,Music
5019,computer,22,9.30360649,5,Musics/Music5.wav,Music
5019,computer,23,10.68442713,6,Musics/Music6.wav,Music
5019,computer,24,9.373375281,4,Musics/Music7.wav,Music
5019,computer,25,9.195068236,4,Musics/Music8.wav,Music
5019,computer,26,8.773618646,7,Musics/Music9.wav,Music
5019,computer,27,8.853475871,5,Musics/Music10.wav,Music
5019,computer,28,10.47249203,6,Musics/Music11.wav,Music
5019,computer,29,8.740606424,8,Musics/Music12.wav,Music
5019,computer,30,10.68114334,6,Musics/Music13.wav,Music
5019,computer,31,8.659851682,9,Musics/Music14.wav,Music
5019,computer,32,8.693855164,8,Musics/Music15.wav,Music
5019,computer,33,8.942454097,8,Musics/Music16.wav,Music
5019,computer,34,9.423576979,6,Musics/Music17.wav,Music
5019,computer,35,8.739162735,7,Musics/Music18.wav,Music
5020,computer,0,9.079371186,4,Images/Image1.jpg,Image
5020,computer,1,8.772449813,6,Images/Image2.jpg,Image
5020,computer,2,8.718885409,9,Images/Image3.jpg,Image
5020,computer,3,8.781496307,3,Images/Image4.jpg,Image
5020,computer,4,8.674663227,7,Images/Image5.jpg,Image
5020,computer,5,9.340080401,4,Images/Image6.jpg,Image
5020,computer,6,10.00983513,5,Images/Image7.jpg,Image
5020,computer,7,9.662301372,5,Images/Image8.jpg,Image
5020,computer,8,8.912995545,2,Images/Image9.jpg,Image
5020,computer,9,9.130579682,9,Images/Image10.jpg,Image
5020,computer,10,9.040665278,7,Images/Image11.jpg,Image
5020,computer,11,8.902165531,8,Images/Image12.jpg,Image
5020,computer,12,9.740152498,7,Images/Image13.jpg,Image
5020,computer,13,8.761907217,8,Images/Image14.jpg,Image
5020,computer,14,42.14405943,7,Images/Image15.jpg,Image
5020,computer,15,8.633886387,8,Images/Image16.jpg,Image
5020,computer,16,9.712882069,4,Images/Image17.jpg,Image
5020,computer,17,9.709229387,8,Images/Image18.jpg,Image
5020,computer,18,9.068158098,6,Musics/Music1.wav,Music
5020,computer,19,8.553958777,7,Musics/Music2.wav,Music
5020,computer,20,8.500691926,7,Musics/Music3.wav,Music
5020,computer,21,9.675189209,8,Musics/Music4.wav,Music
5020,computer,22,9.458692788,3,Musics/Music5.wav,Music
5020,computer,23,10.63976009,9,Musics/Music6.wav,Music
5020,computer,24,10.35525629,8,Musics/Music7.wav,Music
5020,computer,25,8.511483716,8,Musics/Music8.wav,Music
5020,computer,26,9.99245307,7,Musics/Music9.wav,Music
5020,computer,27,9.212101824,8,Musics/Music10.wav,Music
5020,computer,28,8.644629977,8,Musics/Music11.wav,Music
5020,computer,29,8.792016827,6,Musics/Music12.wav,Music
5020,computer,30,9.279620101,6,Musics/Music13.wav,Music
5020,computer,31,9.479180151,6,Musics/Music14.wav,Music
5020,computer,32,31.67430795,7,Musics/Music15.wav,Music
5020,computer,33,11.38429501,7,Musics/Music16.wav,Music
5020,computer,34,8.535935775,7,Musics/Music17.wav,Music
5020,computer,35,8.685440488,7,Musics/Music18.wav,Music
5021,computer,0,12.65536007,8,Images/Image1.jpg,Image
5021,computer,1,8.887557931,2,Images/Image2.jpg,Image
5021,computer,2,8.633187846,2,Images/Image3.jpg,Image
5021,computer,3,8.615658554,2,Images/Image4.jpg,Image
5021,computer,4,9.007018572,2,Images/Image5.jpg,Image
5021,computer,5,9.131448744,6,Images/Image6.jpg,Image
5021,computer,6,8.624606382,4,Images/Image7.jpg,Image
5021,computer,7,10.14737164,4,Images/Image8.jpg,Image
5021,computer,8,9.13012048,8,Images/Image9.jpg,Image
5021,computer,9,9.081402034,3,Images/Image10.jpg,Image
5021,computer,10,12.35310063,6,Images/Image11.jpg,Image
5021,computer,11,8.882448009,2,Images/Image12.jpg,Image
5021,computer,12,8.750191537,8,Images/Image13.jpg,Image
5021,computer,13,8.739453966,8,Images/Image14.jpg,Image
5021,computer,14,9.251146,8,Images/Image15.jpg,Image
5021,computer,15,9.450953671,4,Images/Image16.jpg,Image
5021,computer,16,8.837480965,7,Images/Image17.jpg,Image
5021,computer,17,9.022633725,4,Images/Image18.jpg,Image
5021,computer,18,9.933419141,4,Musics/Music1.wav,Music
5021,computer,19,8.720994271,2,Musics/Music2.wav,Music
5021,computer,20,9.377851838,3,Musics/Music3.wav,Music
5021,computer,21,10.93882611,4,Musics/Music4.wav,Music
5021,computer,22,9.389924898,4,Musics/Music5.wav,Music
5021,computer,23,8.879570361,3,Musics/Music6.wav,Music
5021,computer,24,8.912626411,3,Musics/Music7.wav,Music
5021,computer,25,8.936810696,4,Musics/Music8.wav,Music
5021,computer,26,9.08665636,2,Musics/Music9.wav,Music
5021,computer,27,8.824537398,3,Musics/Music10.wav,Music
5021,computer,28,9.648311447,2,Musics/Music11.wav,Music
5021,computer,29,10.08695778,3,Musics/Music12.wav,Music
5021,computer,30,12.07231414,2,Musics/Music13.wav,Music
5021,computer,31,9.439061606,2,Musics/Music14.wav,Music
5021,computer,32,8.404651178,2,Musics/Music15.wav,Music
5021,computer,33,11.60956507,3,Musics/Music16.wav,Music
5021,computer,34,9.494740376,3,Musics/Music17.wav,Music
5021,computer,35,8.740089012,4,Musics/Music18.wav,Music
5023,computer,0,9.767748781,2,Images/Image1.jpg,Image
5023,computer,1,8.745116963,8,Images/Image2.jpg,Image
5023,computer,2,9.058275772,8,Images/Image3.jpg,Image
5023,computer,3,9.456776088,2,Images/Image4.jpg,Image
5023,computer,4,9.326719259,8,Images/Image5.jpg,Image
5023,computer,5,9.523302919,3,Images/Image6.jpg,Image
5023,computer,6,8.513433735,8,Images/Image7.jpg,Image
5023,computer,7,10.46085773,4,Images/Image8.jpg,Image
5023,computer,8,9.090344317,4,Images/Image9.jpg,Image
5023,computer,9,9.442299258,6,Images/Image10.jpg,Image
5023,computer,10,8.971362986,3,Images/Image11.jpg,Image
5023,computer,11,9.264423756,8,Images/Image12.jpg,Image
5023,computer,12,8.792322002,7,Images/Image13.jpg,Image
5023,computer,13,8.859394242,1,Images/Image14.jpg,Image
5023,computer,14,8.575650013,1,Images/Image15.jpg,Image
5023,computer,15,8.917234838,8,Images/Image16.jpg,Image
5023,computer,16,8.928533075,6,Images/Image17.jpg,Image
5023,computer,17,8.964459072,7,Images/Image18.jpg,Image
5023,computer,18,9.455233758,7,Musics/Music1.wav,Music
5023,computer,19,8.555936922,7,Musics/Music2.wav,Music
5023,computer,20,9.27549277,1,Musics/Music3.wav,Music
5023,computer,21,8.991412842,9,Musics/Music4.wav,Music
5023,computer,22,9.222062654,1,Musics/Music5.wav,Music
5023,computer,23,9.254745122,7,Musics/Music6.wav,Music
5023,computer,24,9.040109545,7,Musics/Music7.wav,Music
5023,computer,25,9.203693437,4,Musics/Music8.wav,Music
5023,computer,26,8.946668986,9,Musics/Music9.wav,Music
5023,computer,27,9.069980849,7,Musics/Music10.wav,Music
5023,computer,28,8.937009687,7,Musics/Music11.wav,Music
5023,computer,29,8.572235109,8,Musics/Music12.wav,Music
5023,computer,30,8.939802584,8,Musics/Music13.wav,Music
5023,computer,31,8.88503989,8,Musics/Music14.wav,Music
5023,computer,32,8.688875173,8,Musics/Music15.wav,Music
5023,computer,33,9.393081745,4,Musics/Music16.wav,Music
5023,computer,34,8.643903452,9,Musics/Music17.wav,Music
5023,computer,35,9.671622845,6,Musics/Music18.wav,Music
5024,computer,0,12.6378228,5,Images/Image1.jpg,Image
5024,computer,1,13.3885086,7,Images/Image2.jpg,Image
5024,computer,2,9.8073543,7,Images/Image3.jpg,Image
5024,computer,3,15.1073791,7,Images/Image4.jpg,Image
5024,computer,4,9.0413351,8,Images/Image5.jpg,Image
5024,computer,5,8.8416769,6,Images/Image6.jpg,Image
5024,computer,6,8.6581903,9,Images/Image7.jpg,Image
5024,computer,7,10.043008,3,Images/Image8.jpg,Image
5024,computer,8,9.7958312,1,Images/Image9.jpg,Image
5024,computer,9,8.9285586,8,Images/Image10.jpg,Image
5024,computer,10,8.9211201,1,Images/Image11.jpg,Image
5024,computer,11,9.1396998,9,Images/Image12.jpg,Image
5024,computer,12,8.6923361,4,Images/Image13.jpg,Image
5024,computer,13,8.9490628,1,Images/Image14.jpg,Image
5024,computer,14,10.7715589,5,Images/Image15.jpg,Image
5024,computer,15,9.3864904,7,Images/Image16.jpg,Image
5024,computer,16,8.9307066,4,Images/Image17.jpg,Image
5024,computer,17,8.7329732,4,Images/Image18.jpg,Image
5024,computer,18,9.2865967,8,Musics/Music1.wav,Music
5024,computer,19,8.6396641,6,Musics/Music2.wav,Music
5024,computer,20,8.4779041,1,Musics/Music3.wav,Music
5024,computer,21,8.6961221,2,Musics/Music4.wav,Music
5024,computer,22,8.7357351,1,Musics/Music5.wav,Music
5024,computer,23,9.2790334,7,Musics/Music6.wav,Music
5024,computer,24,8.5085049,6,Musics/Music7.wav,Music
5024,computer,25,8.5342498,1,Musics/Music8.wav,Music
5024,computer,26,8.6720722,7,Musics/Music9.wav,Music
5024,computer,27,8.3254777,5,Musics/Music10.wav,Music
5024,computer,28,8.6993586,9,Musics/Music11.wav,Music
5024,computer,29,8.6171725,9,Musics/Music12.wav,Music
5024,computer,30,8.6622749,7,Musics/Music13.wav,Music
5024,computer,31,8.6091044,9,Musics/Music14.wav,Music
5024,computer,32,8.6049735,7,Musics/Music15.wav,Music
5024,computer,33,9.1339972,5,Musics/Music16.wav,Music
5024,computer,34,8.742905,9,Musics/Music17.wav,Music
5024,computer,35,8.4818896,6,Musics/Music18.wav,Music
5025,computer,0,14.4204743,3,Images/Image1.jpg,Image
5025,computer,1,9.8696847,6,Images/Image2.jpg,Image
5025,computer,2,10.7034285,6,Images/Image3.jpg,Image
5025,computer,3,8.4321078,8,Images/Image4.jpg,Image
5025,computer,4,8.6710356,8,Images/Image5.jpg,Image
5025,computer,5,8.5946971,8,Images/Image6.jpg,Image
5025,computer,6,8.9714628,8,Images/Image7.jpg,Image
5025,computer,7,9.1031676,8,Images/Image8.jpg,Image
5025,computer,8,8.5211355,1,Images/Image9.jpg,Image
5025,computer,9,9.2955823,2,Images/Image10.jpg,Image
5025,computer,10,8.4498837,2,Images/Image11.jpg,Image
5025,computer,11,8.5164729,8,Images/Image12.jpg,Image
5025,computer,12,8.972773,6,Images/Image13.jpg,Image
5025,computer,13,8.5145264,1,Images/Image14.jpg,Image
5025,computer,14,8.4981058,2,Images/Image15.jpg,Image
5025,computer,15,9.0794207,6,Images/Image16.jpg,Image
5025,computer,16,8.6069166,4,Images/Image17.jpg,Image
5025,computer,17,9.0641395,6,Images/Image18.jpg,Image
5025,computer,18,8.3719066,8,Musics/Music1.wav,Music
5025,computer,19,8.5665388,8,Musics/Music2.wav,Music
5025,computer,20,8.6060443,3,Musics/Music3.wav,Music
5025,computer,21,8.3363177,5,Musics/Music4.wav,Music
5025,computer,22,8.4437036,9,Musics/Music5.wav,Music
5025,computer,23,8.2959702,8,Musics/Music6.wav,Music
5025,computer,24,8.6269686,5,Musics/Music7.wav,Music
5025,computer,25,8.8431693,3,Musics/Music8.wav,Music
5025,computer,26,8.5057799,1,Musics/Music9.wav,Music
5025,computer,27,8.5558,5,Musics/Music10.wav,Music
5025,computer,28,9.0582948,4,Musics/Music11.wav,Music
5025,computer,29,8.4242556,4,Musics/Music12.wav,Music
5025,computer,30,10.581623,1,Musics/Music13.wav,Music
5025,computer,31,8.3539769,6,Musics/Music14.wav,Music
5025,computer,32,8.5646608,3,Musics/Music15.wav,Music
5025,computer,33,8.9004041,7,Musics/Music16.wav,Music
5025,computer,34,8.2532567,5,Musics/Music17.wav,Music
5025,computer,35,9.3193602,5,Musics/Music18.wav,Music
5026,computer,0,8.5843825,5,Images/Image1.jpg,Image
5026,computer,1,8.6632135,6,Images/Image2.jpg,Image
5026,computer,2,9.7243321,5,Images/Image3.jpg,Image
5026,computer,3,9.2467078,4,Images/Image4.jpg,Image
5026,computer,4,8.4458642,5,Images/Image5.jpg,Image
5026,computer,5,9.0136741,1,Images/Image6.jpg,Image
5026,computer,6,9.1814226,3,Images/Image7.jpg,Image
5026,computer,7,8.8081395,2,Images/Image8.jpg,Image
5026,computer,8,8.5932071,2,Images/Image9.jpg,Image
5026,computer,9,8.6284301,5,Images/Image10.jpg,Image
5026,computer,10,9.4963102,7,Images/Image11.jpg,Image
5026,computer,11,8.5986052,5,Images/Image12.jpg,Image
5026,computer,12,9.0129821,1,Images/Image13.jpg,Image
5026,computer,13,8.9753467,1,Images/Image14.jpg,Image
5026,computer,14,8.5622477,1,Images/Image15.jpg,Image
5026,computer,15,8.8973909,9,Images/Image16.jpg,Image
5026,computer,16,8.9635659,3,Images/Image17.jpg,Image
5026,computer,17,9.816462,5,Images/Image18.jpg,Image
5026,computer,18,11.431847,5,Musics/Music1.wav,Music
5026,computer,19,9.8119408,4,Musics/Music2.wav,Music
5026,computer,20,9.1679064,6,Musics/Music3.wav,Music
5026,computer,21,10.7551072,5,Musics/Music4.wav,Music
5026,computer,22,8.9067768,1,Musics/Music5.wav,Music
5026,computer,23,9.4607312,2,Musics/Music6.wav,Music
5026,computer,24,11.74236,5,Musics/Music7.wav,Music
5026,computer,25,8.9742385,5,Musics/Music8.wav,Music
5026,computer,26,9.2411389,7,Musics/Music9.wav,Music
5026,computer,27,10.3407946,6,Musics/Music10.wav,Music
5026,computer,28,9.5401988,6,Musics/Music11.wav,Music
5026,computer,29,8.992943,6,Musics/Music12.wav,Music
5026,computer,30,9.97555,3,Musics/Music13.wav,Music
5026,computer,31,10.1104077,7,Musics/Music14.wav,Music
5026,computer,32,8.7585823,5,Musics/Music15.wav,Music
5026,computer,33,8.9775063,6,Musics/Music16.wav,Music
5026,computer,34,8.5418225,5,Musics/Music17.wav,Music
5026,computer,35,8.5790561,5,Musics/Music18.wav,Music
5027,computer,0,9.932978,3,Images/Image1.jpg,Image
5027,computer,1,10.8291996,6,Images/Image2.jpg,Image
5027,computer,2,9.0821398,7,Images/Image3.jpg,Image
5027,computer,3,8.8652795,2,Images/Image4.jpg,Image
5027,computer,4,8.8494592,6,Images/Image5.jpg,Image
5027,computer,5,8.8988176,2,Images/Image6.jpg,Image
5027,computer,6,8.8824898,7,Images/Image7.jpg,Image
5027,computer,7,9.1473536,8,Images/Image8.jpg,Image
5027,computer,8,8.8470833,3,Images/Image9.jpg,Image
5027,computer,9,9.2807567,8,Images/Image10.jpg,Image
5027,computer,10,8.8636585,4,Images/Image11.jpg,Image
5027,computer,11,9.1840708,8,Images/Image12.jpg,Image
5027,computer,12,9.6977281,2,Images/Image13.jpg,Image
5027,computer,13,9.0300535,2,Images/Image14.jpg,Image
5027,computer,14,8.8647991,2,Images/Image15.jpg,Image
5027,computer,15,8.9808076,8,Images/Image16.jpg,Image
5027,computer,16,9.0990822,3,Images/Image17.jpg,Image
5027,computer,17,8.9930516,6,Images/Image18.jpg,Image
5027,computer,18,8.8864322,7,Musics/Music1.wav,Music
5027,computer,19,8.8775839,8,Musics/Music2.wav,Music
5027,computer,20,8.8497577,4,Musics/Music3.wav,Music
5027,computer,21,8.6091989,4,Musics/Music4.wav,Music
5027,computer,22,8.9585966,1,Musics/Music5.wav,Music
5027,computer,23,9.4558869,7,Musics/Music6.wav,Music
5027,computer,24,8.6590147,5,Musics/Music7.wav,Music
5027,computer,25,9.0418217,6,Musics/Music8.wav,Music
5027,computer,26,8.6754053,4,Musics/Music9.wav,Music
5027,computer,27,9.4919164,6,Musics/Music10.wav,Music
5027,computer,28,9.2591637,6,Musics/Music11.wav,Music
5027,computer,29,8.859802,8,Musics/Music12.wav,Music
5027,computer,30,8.4260507,5,Musics/Music13.wav,Music
5027,computer,31,9.9234518,6,Musics/Music14.wav,Music
5027,computer,32,8.6564938,6,Musics/Music15.wav,Music
5027,computer,33,8.9620777,7,Musics/Music16.wav,Music
5027,computer,34,10.2117241,6,Musics/Music17.wav,Music
5027,computer,35,9.0837793,6,Musics/Music18.wav,Music
5029,computer,0,8.116723537,5,Images/Image1.jpg,Image
5029,computer,1,9.340208744,7,Images/Image2.jpg,Image
5029,computer,2,9.452087635,7,Images/Image3.jpg,Image
5029,computer,3,8.896298957,9,Images/Image4.jpg,Image
5029,computer,4,8.208791061,5,Images/Image5.jpg,Image
5029,computer,5,8.888487436,8,Images/Image6.jpg,Image
5029,computer,6,9.695542306,7,Images/Image7.jpg,Image
5029,computer,7,8.997711761,8,Images/Image8.jpg,Image
5029,computer,8,8.160216823,5,Images/Image9.jpg,Image
5029,computer,9,8.871358301,7,Images/Image10.jpg,Image
5029,computer,10,8.879705919,4,Images/Image11.jpg,Image
5029,computer,11,9.371735539,8,Images/Image12.jpg,Image
5029,computer,12,9.424876394,6,Images/Image13.jpg,Image
5029,computer,13,8.958677259,4,Images/Image14.jpg,Image
5029,computer,14,10.25465808,8,Images/Image15.jpg,Image
5029,computer,15,9.12990468,7,Images/Image16.jpg,Image
5029,computer,16,9.078228362,7,Images/Image17.jpg,Image
5029,computer,17,8.135132089,5,Images/Image18.jpg,Image
5029,computer,18,9.164896547,8,Musics/Music1.wav,Music
5029,computer,19,8.808767099,9,Musics/Music2.wav,Music
5029,computer,20,8.968353111,7,Musics/Music3.wav,Music
5029,computer,21,8.258663023,5,Musics/Music4.wav,Music
5029,computer,22,10.00186577,6,Musics/Music5.wav,Music
5029,computer,23,10.89303863,7,Musics/Music6.wav,Music
5029,computer,24,9.019555171,7,Musics/Music7.wav,Music
5029,computer,25,9.076523536,8,Musics/Music8.wav,Music
5029,computer,26,8.265090652,5,Musics/Music9.wav,Music
5029,computer,27,8.478075212,9,Musics/Music10.wav,Music
5029,computer,28,10.05729525,6,Musics/Music11.wav,Music
5029,computer,29,9.217710586,8,Musics/Music12.wav,Music
5029,computer,30,8.009842992,5,Musics/Music13.wav,Music
5029,computer,31,8.501853285,7,Musics/Music14.wav,Music
5029,computer,32,8.753362238,6,Musics/Music15.wav,Music
5029,computer,33,8.975962221,8,Musics/Music16.wav,Music
5029,computer,34,8.954732889,6,Musics/Music17.wav,Music
5029,computer,35,9.575318007,7,Musics/Music18.wav,Music
5030,computer,0,8.9097979,2,Images/Image1.jpg,Image
5030,computer,1,8.4658413,2,Images/Image2.jpg,Image
5030,computer,2,8.7308012,6,Images/Image3.jpg,Image
5030,computer,3,9.2347683,3,Images/Image4.jpg,Image
5030,computer,4,8.4076797,5,Images/Image5.jpg,Image
5030,computer,5,8.4436109,4,Images/Image6.jpg,Image
5030,computer,6,8.7390694,5,Images/Image7.jpg,Image
5030,computer,7,8.4436899,6,Images/Image8.jpg,Image
5030,computer,8,8.5935513,4,Images/Image9.jpg,Image
5030,computer,9,8.5607728,7,Images/Image10.jpg,Image
5030,computer,10,8.7001518,8,Images/Image11.jpg,Image
5030,computer,11,8.4975649,6,Images/Image12.jpg,Image
5030,computer,12,8.7294366,4,Images/Image13.jpg,Image
5030,computer,13,8.6027244,7,Images/Image14.jpg,Image
5030,computer,14,8.5652679,4,Images/Image15.jpg,Image
5030,computer,15,8.485295,8,Images/Image16.jpg,Image
5030,computer,16,11.9418519,6,Images/Image17.jpg,Image
5030,computer,17,10.1967085,8,Images/Image18.jpg,Image
5030,computer,18,10.1814171,5,Musics/Music1.wav,Music
5030,computer,19,8.8534292,7,Musics/Music2.wav,Music
5030,computer,20,10.211124,5,Musics/Music3.wav,Music
5030,computer,21,8.7441924,8,Musics/Music4.wav,Music
5030,computer,22,18.8342487,3,Musics/Music5.wav,Music
5030,computer,23,8.3402215,8,Musics/Music6.wav,Music
5030,computer,24,8.3683047,7,Musics/Music7.wav,Music
5030,computer,25,8.4908626,9,Musics/Music8.wav,Music
5030,computer,26,8.540463,6,Musics/Music9.wav,Music
5030,computer,27,8.607183,4,Musics/Music10.wav,Music
5030,computer,28,8.5981481,4,Musics/Music11.wav,Music
5030,computer,29,9.278216,8,Musics/Music12.wav,Music
5030,computer,30,8.8333695,5,Musics/Music13.wav,Music
5030,computer,31,8.6003944,7,Musics/Music14.wav,Music
5030,computer,32,8.4350014,9,Musics/Music15.wav,Music
5030,computer,33,8.7067193,9,Musics/Music16.wav,Music
5030,computer,34,8.2989564,5,Musics/Music17.wav,Music
5030,computer,35,8.958547,6,Musics/Music18.wav,Music
5031,computer,0,17.89566959,2,Images/Image1.jpg,Image
5031,computer,1,9.191616572,3,Images/Image2.jpg,Image
5031,computer,2,11.91358382,3,Images/Image3.jpg,Image
5031,computer,3,9.601974814,4,Images/Image4.jpg,Image
5031,computer,4,9.500639709,5,Images/Image5.jpg,Image
5031,computer,5,9.231739701,3,Images/Image6.jpg,Image
5031,computer,6,9.953997427,4,Images/Image7.jpg,Image
5031,computer,7,9.98467566,6,Images/Image8.jpg,Image
5031,computer,8,12.84953808,8,Images/Image9.jpg,Image
5031,computer,9,9.461788407,4,Images/Image10.jpg,Image
5031,computer,10,11.11049202,9,Images/Image11.jpg,Image
5031,computer,11,9.339500174,6,Images/Image12.jpg,Image
5031,computer,12,11.57315007,8,Images/Image13.jpg,Image
5031,computer,13,9.405570297,9,Images/Image14.jpg,Image
5031,computer,14,12.34408592,6,Images/Image15.jpg,Image
5031,computer,15,9.979086863,4,Images/Image16.jpg,Image
5031,computer,16,10.55453879,2,Images/Image17.jpg,Image
5031,computer,17,8.988314823,3,Images/Image18.jpg,Image
5031,computer,18,10.13129952,6,Musics/Music1.wav,Music
5031,computer,19,8.974929151,4,Musics/Music2.wav,Music
5031,computer,20,11.51669988,4,Musics/Music3.wav,Music
5031,computer,21,9.603499896,6,Musics/Music4.wav,Music
5031,computer,22,15.77168404,1,Musics/Music5.wav,Music
5031,computer,23,11.96744628,3,Musics/Music6.wav,Music
5031,computer,24,10.09501896,7,Musics/Music7.wav,Music
5031,computer,25,9.907095177,6,Musics/Music8.wav,Music
5031,computer,26,9.175767133,8,Musics/Music9.wav,Music
5031,computer,27,8.980782034,9,Musics/Music10.wav,Music
5031,computer,28,9.896200317,8,Musics/Music11.wav,Music
5031,computer,29,11.63003456,7,Musics/Music12.wav,Music
5031,computer,30,8.919441621,6,Musics/Music13.wav,Music
5031,computer,31,10.43772954,3,Musics/Music14.wav,Music
5031,computer,32,8.639590987,9,Musics/Music15.wav,Music
5031,computer,33,10.06946112,2,Musics/Music16.wav,Music
5031,computer,34,10.34477812,3,Musics/Music17.wav,Music
5031,computer,35,9.437878593,3,Musics/Music18.wav,Music
5032,computer,0,12.65955272,3,Images/Image1.jpg,Image
5032,computer,1,9.055448269,7,Images/Image2.jpg,Image
5032,computer,2,8.616244936,5,Images/Image3.jpg,Image
5032,computer,3,8.884217698,4,Images/Image4.jpg,Image
5032,computer,4,8.565139458,5,Images/Image5.jpg,Image
5032,computer,5,9.141921739,4,Images/Image6.jpg,Image
5032,computer,6,9.028561492,6,Images/Image7.jpg,Image
5032,computer,7,9.193791368,5,Images/Image8.jpg,Image
5032,computer,8,8.920835697,3,Images/Image9.jpg,Image
5032,computer,9,8.926735406,5,Images/Image10.jpg,Image
5032,computer,10,9.120085728,4,Images/Image11.jpg,Image
5032,computer,11,8.879607654,5,Images/Image12.jpg,Image
5032,computer,12,8.628911333,5,Images/Image13.jpg,Image
5032,computer,13,8.91108017,3,Images/Image14.jpg,Image
5032,computer,14,8.702595039,4,Images/Image15.jpg,Image
5032,computer,15,8.617980566,5,Images/Image16.jpg,Image
5032,computer,16,8.708053201,4,Images/Image17.jpg,Image
5032,computer,17,8.454751269,5,Images/Image18.jpg,Image
5032,computer,18,8.620804909,4,Musics/Music1.wav,Music
5032,computer,19,9.016832868,7,Musics/Music2.wav,Music
5032,computer,20,8.791728386,6,Musics/Music3.wav,Music
5032,computer,21,9.083887009,7,Musics/Music4.wav,Music
5032,computer,22,9.057241248,6,Musics/Music5.wav,Music
5032,computer,23,10.06062022,5,Musics/Music6.wav,Music
5032,computer,24,9.156872836,6,Musics/Music7.wav,Music
5032,computer,25,9.042294324,6,Musics/Music8.wav,Music
5032,computer,26,8.516017154,6,Musics/Music9.wav,Music
5032,computer,27,10.71772105,4,Musics/Music10.wav,Music
5032,computer,28,8.908009522,6,Musics/Music11.wav,Music
5032,computer,29,9.465136731,5,Musics/Music12.wav,Music
5032,computer,30,8.65073087,6,Musics/Music13.wav,Music
5032,computer,31,8.85138123,7,Musics/Music14.wav,Music
5032,computer,32,10.56860838,6,Musics/Music15.wav,Music
5032,computer,33,8.944746661,5,Musics/Music16.wav,Music
5032,computer,34,8.737170695,6,Musics/Music17.wav,Music
5032,computer,35,9.836229187,6,Musics/Music18.wav,Music
5033,computer,0,13.09272729,2,Images/Image1.jpg,Image
5033,computer,1,11.86191504,7,Images/Image2.jpg,Image
5033,computer,2,9.331642859,8,Images/Image3.jpg,Image
5033,computer,3,9.882311586,3,Images/Image4.jpg,Image
5033,computer,4,9.805752741,9,Images/Image5.jpg,Image
5033,computer,5,10.72788129,4,Images/Image6.jpg,Image
5033,computer,6,10.5654793,9,Images/Image7.jpg,Image
5033,computer,7,9.059568442,9,Images/Image8.jpg,Image
5033,computer,8,9.54409159,9,Images/Image9.jpg,Image
5033,computer,9,10.9775265,8,Images/Image10.jpg,Image
5033,computer,10,9.640344832,4,Images/Image11.jpg,Image
5033,computer,11,10.03475886,7,Images/Image12.jpg,Image
5033,computer,12,10.0391176,3,Images/Image13.jpg,Image
5033,computer,13,10.77289485,3,Images/Image14.jpg,Image
5033,computer,14,10.92723367,2,Images/Image15.jpg,Image
5033,computer,15,11.09579115,8,Images/Image16.jpg,Image
5033,computer,16,13.83467353,5,Images/Image17.jpg,Image
5033,computer,17,10.17097562,7,Images/Image18.jpg,Image
5033,computer,18,15.93574468,8,Musics/Music1.wav,Music
5033,computer,19,11.48885193,7,Musics/Music2.wav,Music
5033,computer,20,12.41959539,6,Musics/Music3.wav,Music
5033,computer,21,10.02724003,7,Musics/Music4.wav,Music
5033,computer,22,13.03744774,1,Musics/Music5.wav,Music
5033,computer,23,10.00631146,8,Musics/Music6.wav,Music
5033,computer,24,12.73254625,8,Musics/Music7.wav,Music
5033,computer,25,23.26332831,7,Musics/Music8.wav,Music
5033,computer,26,20.11754768,8,Musics/Music9.wav,Music
5033,computer,27,14.67947118,9,Musics/Music10.wav,Music
5033,computer,28,8.762341772,9,Musics/Music11.wav,Music
5033,computer,29,8.767318417,9,Musics/Music12.wav,Music
5033,computer,30,9.970568782,8,Musics/Music13.wav,Music
5033,computer,31,9.515899262,9,Musics/Music14.wav,Music
5033,computer,32,9.907461499,7,Musics/Music15.wav,Music
5033,computer,33,10.00509833,7,Musics/Music16.wav,Music
5033,computer,34,9.944480502,9,Musics/Music17.wav,Music
5033,computer,35,10.6816101,6,Musics/Music18.wav,Music
5034,computer,0,18.04712355,4,Images/Image1.jpg,Image
5034,computer,1,10.78747671,5,Images/Image2.jpg,Image
5034,computer,2,10.69393119,6,Images/Image3.jpg,Image
5034,computer,3,12.03655331,3,Images/Image4.jpg,Image
5034,computer,4,9.741627861,7,Images/Image5.jpg,Image
5034,computer,5,9.492848345,3,Images/Image6.jpg,Image
5034,computer,6,9.707314282,7,Images/Image7.jpg,Image
5034,computer,7,8.104081092,7,Images/Image8.jpg,Image
5034,computer,8,9.557601387,6,Images/Image9.jpg,Image
5034,computer,9,10.00074063,7,Images/Image10.jpg,Image
5034,computer,10,10.71894727,5,Images/Image11.jpg,Image
5034,computer,11,8.215890536,7,Images/Image12.jpg,Image
5034,computer,12,13.97473852,4,Images/Image13.jpg,Image
5034,computer,13,10.82647466,3,Images/Image14.jpg,Image
5034,computer,14,9.278038772,3,Images/Image15.jpg,Image
5034,computer,15,8.967293818,8,Images/Image16.jpg,Image
5034,computer,16,9.063622821,3,Images/Image17.jpg,Image
5034,computer,17,9.193535894,8,Images/Image18.jpg,Image
5034,computer,18,12.20526928,5,Musics/Music1.wav,Music
5034,computer,19,12.6171424,6,Musics/Music2.wav,Music
5034,computer,20,9.972525754,7,Musics/Music3.wav,Music
5034,computer,21,9.004142293,6,Musics/Music4.wav,Music
5034,computer,22,9.082327615,5,Musics/Music5.wav,Music
5034,computer,23,8.845745539,8,Musics/Music6.wav,Music
5034,computer,24,8.838768192,8,Musics/Music7.wav,Music
5034,computer,25,8.851145002,7,Musics/Music8.wav,Music
5034,computer,26,8.864575388,9,Musics/Music9.wav,Music
5034,computer,27,8.667864481,9,Musics/Music10.wav,Music
5034,computer,28,8.68958585,9,Musics/Music11.wav,Music
5034,computer,29,12.90919149,9,Musics/Music12.wav,Music
5034,computer,30,8.251864809,9,Musics/Music13.wav,Music
5034,computer,31,8.642740017,9,Musics/Music14.wav,Music
5034,computer,32,8.639209786,9,Musics/Music15.wav,Music
5034,computer,33,9.145028365,7,Musics/Music16.wav,Music
5034,computer,34,8.666569073,9,Musics/Music17.wav,Music
5034,computer,35,8.690575167,9,Musics/Music18.wav,Music