Prolific_ID,Participant.Divice.Type,Trial.Number,Reaction.Time,Response,Display,ImageStim,MusicStim,StimCued
5001,computer,0,3.7467914,2,Pre,Images/Image1.jpg,Musics/Music1.wav,Both
5001,computer,1,3.1749459,4,Pre,Images/Image16.jpg,Musics/Music16.wav,Both
5001,computer,2,2.3850451,8,Pre,Images/Image18.jpg,Musics/Music18.wav,Image
5001,computer,3,2.7168451,1,Pre,Images/Image8.jpg,Musics/Music8.wav,Image
5001,computer,4,1.0754073,8,Pre,Images/Image12.jpg,Musics/Music12.wav,Both
5001,computer,5,1.9916752,9,Pre,Images/Image17.jpg,Musics/Music17.wav,Music
5001,computer,6,2.6100293,3,Pre,Images/Image6.jpg,Musics/Music6.wav,Both
5001,computer,7,2.3416704,2,Pre,Images/Image1.jpg,Musics/Music1.wav,Music
5001,computer,8,3.4980187,4,Pre,Images/Image17.jpg,Musics/Music17.wav,Image
5001,computer,9,0.7495563,7,Pre,Images/Image5.jpg,Musics/Music5.wav,Both
5001,computer,10,2.4061022,2,Pre,Images/Image12.jpg,Musics/Music12.wav,Music
5001,computer,11,1.2379638,3,Pre,Images/Image4.jpg,Musics/Music4.wav,Both
5001,computer,12,2.5660648,5,Pre,Images/Image10.jpg,Musics/Music10.wav,Music
5001,computer,13,1.1481353,1,Pre,Images/Image13.jpg,Musics/Music13.wav,Both
5001,computer,14,0.877463,5,Pre,Images/Image11.jpg,Musics/Music11.wav,Music
5001,computer,15,1.0270241,1,Pre,Images/Image11.jpg,Musics/Music11.wav,Image
5001,computer,16,0.6779227,7,Pre,Images/Image17.jpg,Musics/Music17.wav,Both
5001,computer,17,3.0525143,3,Pre,Images/Image18.jpg,Musics/Music18.wav,Music
5001,computer,18,0.6756954,6,Pre,Images/Image12.jpg,Musics/Music12.wav,Image
5001,computer,19,0.7893464,3,Pre,Images/Image14.jpg,Musics/Music14.wav,Both
5001,computer,20,0.6330214,2,Pre,Images/Image6.jpg,Musics/Music6.wav,Image
5001,computer,21,0.8487883,8,Pre,Images/Image10.jpg,Musics/Music10.wav,Both
5001,computer,22,0.6828054,6,Pre,Images/Image9.jpg,Musics/Music9.wav,Music
5001,computer,23,0.9519292,3,Pre,Images/Image14.jpg,Musics/Music14.wav,Image
5001,computer,24,0.6015022,5,Pre,Images/Image2.jpg,Musics/Music2.wav,Image
5001,computer,25,0.6491743,1,Pre,Images/Image4.jpg,Musics/Music4.wav,Image
5001,computer,26,3.0583429,6,Pre,Images/Image8.jpg,Musics/Music8.wav,Music
5001,computer,27,0.6482434,8,Pre,Images/Image2.jpg,Musics/Music2.wav,Music
5001,computer,28,1.4155545,2,Pre,Images/Image8.jpg,Musics/Music8.wav,Both
5001,computer,29,1.8793301,9,Pre,Images/Image16.jpg,Musics/Music16.wav,Image
5001,computer,30,3.7860603,6,Pre,Images/Image7.jpg,Musics/Music7.wav,Both
5001,computer,31,2.2169265,1,Pre,Images/Image11.jpg,Musics/Music11.wav,Both
5001,computer,32,2.1015696,7,Pre,Images/Image14.jpg,Musics/Music14.wav,Music
5001,computer,33,1.1084855,6,Pre,Images/Image7.jpg,Musics/Music7.wav,Music
5001,computer,34,0.6882396,3,Pre,Images/Image5.jpg,Musics/Music5.wav,Image
5001,computer,35,1.3124597,1,Pre,Images/Image4.jpg,Musics/Music4.wav,Music
5001,computer,36,0.8536128,5,Pre,Images/Image6.jpg,Musics/Music6.wav,Music
5001,computer,37,0.5875749,3,Pre,Images/Image15.jpg,Musics/Music15.wav,Both
5001,computer,38,0.3985601,3,Pre,Images/Image13.jpg,Musics/Music13.wav,Image
5001,computer,39,1.5009921,2,Pre,Images/Image3.jpg,Musics/Music3.wav,Music
5001,computer,40,1.2336132,1,Pre,Images/Image9.jpg,Musics/Music9.wav,Image
5001,computer,41,0.5639911,4,Pre,Images/Image18.jpg,Musics/Music18.wav,Both
5001,computer,42,1.8305281,5,Pre,Images/Image3.jpg,Musics/Music3.wav,Both
5001,computer,43,2.9111119,3,Pre,Images/Image15.jpg,Musics/Music15.wav,Image
5001,computer,44,0.6112273,5,Pre,Images/Image2.jpg,Musics/Music2.wav,Both
5001,computer,45,1.0551907,8,Pre,Images/Image13.jpg,Musics/Music13.wav,Music
5001,computer,46,0.4831723,8,Pre,Images/Image7.jpg,Musics/Music7.wav,Image
5001,computer,47,1.4054482,1,Pre,Images/Image1.jpg,Musics/Music1.wav,Image
5001,computer,48,2.3992707,3,Pre,Images/Image16.jpg,Musics/Music16.wav,Music
5001,computer,49,13.8352851,6,Pre,Images/Image3.jpg,Musics/Music3.wav,Image
5001,computer,50,4.7386875,3,Pre,Images/Image5.jpg,Musics/Music5.wav,Music
5001,computer,51,3.0844251,2,Pre,Images/Image15.jpg,Musics/Music15.wav,Music
5001,computer,52,0.7204563,7,Pre,Images/Image10.jpg,Musics/Music10.wav,Image
5001,computer,53,0.7324566,2,Pre,Images/Image9.jpg,Musics/Music9.wav,Both
5001,computer,0,3.8027747,5,Post,Images/Image13.jpg,Musics/Music13.wav,Music
5001,computer,1,5.5045762,4,Post,Images/Image7.jpg,Musics/Music7.wav,Image
5001,computer,2,1.3326677,7,Post,Images/Image18.jpg,Musics/Music18.wav,Both
5001,computer,3,2.1646767,2,Post,Images/Image5.jpg,Musics/Music5.wav,Both
5001,computer,4,2.9052557,4,Post,Images/Image2.jpg,Musics/Music2.wav,Both
5001,computer,5,2.6449086,2,Post,Images/Image8.jpg,Musics/Music8.wav,Both
5001,computer,6,2.7180133,3,Post,Images/Image8.jpg,Musics/Music8.wav,Music
5001,computer,7,1.792843,3,Post,Images/Image16.jpg,Musics/Music16.wav,Music
5001,computer,8,2.9676922,1,Post,Images/Image9.jpg,Musics/Music9.wav,Both
5001,computer,9,2.0727951,2,Post,Images/Image15.jpg,Musics/Music15.wav,Image
5001,computer,10,1.3260433,2,Post,Images/Image11.jpg,Musics/Music11.wav,Image
5001,computer,11,1.6684368,4,Post,Images/Image11.jpg,Musics/Music11.wav,Music
5001,computer,12,2.5193818,7,Post,Images/Image10.jpg,Musics/Music10.wav,Image
5001,computer,13,1.3129732,2,Post,Images/Image5.jpg,Musics/Music5.wav,Music
5001,computer,14,1.1107986,3,Post,Images/Image2.jpg,Musics/Music2.wav,Music
5001,computer,15,1.8112417,2,Post,Images/Image6.jpg,Musics/Music6.wav,Image
5001,computer,16,0.9675187,2,Post,Images/Image1.jpg,Musics/Music1.wav,Music
5001,computer,17,2.0877161,1,Post,Images/Image9.jpg,Musics/Music9.wav,Image
5001,computer,18,1.1706615,2,Post,Images/Image11.jpg,Musics/Music11.wav,Both
5001,computer,19,1.4855553,5,Post,Images/Image10.jpg,Musics/Music10.wav,Music
5001,computer,20,2.1470406,3,Post,Images/Image18.jpg,Musics/Music18.wav,Music
5001,computer,21,2.2590237,7,Post,Images/Image17.jpg,Musics/Music17.wav,Music
5001,computer,22,2.450274,5,Post,Images/Image3.jpg,Musics/Music3.wav,Image
5001,computer,23,2.6726825,7,Post,Images/Image18.jpg,Musics/Music18.wav,Image
5001,computer,24,6.7265329,6,Post,Images/Image3.jpg,Musics/Music3.wav,Music
5001,computer,25,2.05139,1,Post,Images/Image8.jpg,Musics/Music8.wav,Image
5001,computer,26,1.3948408,2,Post,Images/Image6.jpg,Musics/Music6.wav,Both
5001,computer,27,1.0438847,2,Post,Images/Image4.jpg,Musics/Music4.wav,Both
5001,computer,28,1.2498489,5,Post,Images/Image13.jpg,Musics/Music13.wav,Image
5001,computer,29,4.1477543,6,Post,Images/Image12.jpg,Musics/Music12.wav,Image
5001,computer,30,2.0400706,6,Post,Images/Image5.jpg,Musics/Music5.wav,Image
5001,computer,31,2.3818948,7,Post,Images/Image7.jpg,Musics/Music7.wav,Both
5001,computer,32,2.6616397,3,Post,Images/Image6.jpg,Musics/Music6.wav,Music
5001,computer,33,2.0178048,1,Post,Images/Image14.jpg,Musics/Music14.wav,Both
5001,computer,34,1.5868415,5,Post,Images/Image7.jpg,Musics/Music7.wav,Music
5001,computer,35,0.7158211,2,Post,Images/Image1.jpg,Musics/Music1.wav,Both
5001,computer,36,0.82689,3,Post,Images/Image15.jpg,Musics/Music15.wav,Both
5001,computer,37,1.4772416,6,Post,Images/Image10.jpg,Musics/Music10.wav,Both
5001,computer,38,1.3859145,4,Post,Images/Image17.jpg,Musics/Music17.wav,Image
5001,computer,39,1.395726,5,Post,Images/Image17.jpg,Musics/Music17.wav,Both
5001,computer,40,1.1748655,1,Post,Images/Image1.jpg,Musics/Music1.wav,Image
5001,computer,41,1.3860443,4,Post,Images/Image12.jpg,Musics/Music12.wav,Both
5001,computer,42,1.0229343,1,Post,Images/Image14.jpg,Musics/Music14.wav,Image
5001,computer,43,1.9514331,1,Post,Images/Image4.jpg,Musics/Music4.wav,Image
5001,computer,44,2.2338272,3,Post,Images/Image13.jpg,Musics/Music13.wav,Both
5001,computer,45,2.1063695,3,Post,Images/Image15.jpg,Musics/Music15.wav,Music
5001,computer,46,2.6091607,5,Post,Images/Image16.jpg,Musics/Music16.wav,Both
5001,computer,47,1.2788438,8,Post,Images/Image2.jpg,Musics/Music2.wav,Image
5001,computer,48,2.868253,6,Post,Images/Image12.jpg,Musics/Music12.wav,Music
5001,computer,49,3.4176266,7,Post,Images/Image16.jpg,Musics/Music16.wav,Image
5001,computer,50,1.9299498,6,Post,Images/Image14.jpg,Musics/Music14.wav,Music
5001,computer,51,2.1102678,7,Post,Images/Image4.jpg,Musics/Music4.wav,Music
5001,computer,52,1.647411,4,Post,Images/Image9.jpg,Musics/Music9.wav,Music
5001,computer,53,1.8256983,2,Post,Images/Image3.jpg,Musics/Music3.wav,Both
5002,computer,0,2.251596552,6,Pre,Images/Image7.jpg,Musics/Music7.wav,Image
5002,computer,1,2.377344037,6,Pre,Images/Image8.jpg,Musics/Music8.wav,Image
5002,computer,2,0.927064508,7,Pre,Images/Image11.jpg,Musics/Music11.wav,Both
5002,computer,3,0.799805643,6,Pre,Images/Image1.jpg,Musics/Music1.wav,Both
5002,computer,4,1.858108477,4,Pre,Images/Image17.jpg,Musics/Music17.wav,Both
5002,computer,5,0.716230148,5,Pre,Images/Image8.jpg,Musics/Music8.wav,Both
5002,computer,6,0.714232066,6,Pre,Images/Image3.jpg,Musics/Music3.wav,Image
5002,computer,7,2.569700015,5,Pre,Images/Image7.jpg,Musics/Music7.wav,Music
5002,computer,8,0.662117009,4,Pre,Images/Image2.jpg,Musics/Music2.wav,Both
5002,computer,9,1.384030886,6,Pre,Images/Image2.jpg,Musics/Music2.wav,Image
5002,computer,10,4.152587324,5,Pre,Images/Image17.jpg,Musics/Music17.wav,Image
5002,computer,11,2.3170414,7,Pre,Images/Image4.jpg,Musics/Music4.wav,Image
5002,computer,12,1.502001886,6,Pre,Images/Image10.jpg,Musics/Music10.wav,Music
5002,computer,13,1.18459699,8,Pre,Images/Image6.jpg,Musics/Music6.wav,Music
5002,computer,14,0.727653192,6,Pre,Images/Image15.jpg,Musics/Music15.wav,Music
5002,computer,15,0.967613623,7,Pre,Images/Image1.jpg,Musics/Music1.wav,Music
5002,computer,16,2.280739356,8,Pre,Images/Image16.jpg,Musics/Music16.wav,Both
5002,computer,17,2.082782647,6,Pre,Images/Image9.jpg,Musics/Music9.wav,Both
5002,computer,18,0.684895867,6,Pre,Images/Image12.jpg,Musics/Music12.wav,Music
5002,computer,19,0.7177839,6,Pre,Images/Image10.jpg,Musics/Music10.wav,Image
5002,computer,20,1.666439149,7,Pre,Images/Image6.jpg,Musics/Music6.wav,Image
5002,computer,21,2.499132434,5,Pre,Images/Image5.jpg,Musics/Music5.wav,Both
5002,computer,22,1.141703786,6,Pre,Images/Image14.jpg,Musics/Music14.wav,Music
5002,computer,23,0.82703105,7,Pre,Images/Image3.jpg,Musics/Music3.wav,Both
5002,computer,24,2.09593154,6,Pre,Images/Image16.jpg,Musics/Music16.wav,Music
5002,computer,25,0.981348936,7,Pre,Images/Image8.jpg,Musics/Music8.wav,Music
5002,computer,26,0.700628528,6,Pre,Images/Image11.jpg,Musics/Music11.wav,Image
5002,computer,27,0.83070189,4,Pre,Images/Image9.jpg,Musics/Music9.wav,Image
5002,computer,28,0.632779227,6,Pre,Images/Image18.jpg,Musics/Music18.wav,Music
5002,computer,29,1.254371201,5,Pre,Images/Image13.jpg,Musics/Music13.wav,Music
5002,computer,30,1.20535985,6,Pre,Images/Image11.jpg,Musics/Music11.wav,Music
5002,computer,31,0.654339069,7,Pre,Images/Image14.jpg,Musics/Music14.wav,Both
5002,computer,32,1.448681917,7,Pre,Images/Image7.jpg,Musics/Music7.wav,Both
5002,computer,33,0.940950804,6,Pre,Images/Image9.jpg,Musics/Music9.wav,Music
5002,computer,34,0.828977348,7,Pre,Images/Image4.jpg,Musics/Music4.wav,Both
5002,computer,35,2.742153941,5,Pre,Images/Image18.jpg,Musics/Music18.wav,Image
5002,computer,36,0.617475091,8,Pre,Images/Image5.jpg,Musics/Music5.wav,Music
5002,computer,37,0.945538842,5,Pre,Images/Image13.jpg,Musics/Music13.wav,Image
5002,computer,38,0.699027143,4,Pre,Images/Image16.jpg,Musics/Music16.wav,Image
5002,computer,39,1.573248338,5,Pre,Images/Image1.jpg,Musics/Music1.wav,Image
5002,computer,40,0.674584121,6,Pre,Images/Image4.jpg,Musics/Music4.wav,Music
5002,computer,41,0.947000441,8,Pre,Images/Image2.jpg,Musics/Music2.wav,Music
5002,computer,42,0.79017534,7,Pre,Images/Image3.jpg,Musics/Music3.wav,Music
5002,computer,43,0.598549488,5,Pre,Images/Image12.jpg,Musics/Music12.wav,Image
5002,computer,44,3.893635553,4,Pre,Images/Image13.jpg,Musics/Music13.wav,Both
5002,computer,45,2.607965912,6,Pre,Images/Image14.jpg,Musics/Music14.wav,Image
5002,computer,46,1.312148414,7,Pre,Images/Image5.jpg,Musics/Music5.wav,Image
5002,computer,47,0.956428888,8,Pre,Images/Image6.jpg,Musics/Music6.wav,Both
5002,computer,48,1.04902568,5,Pre,Images/Image17.jpg,Musics/Music17.wav,Music
5002,computer,49,5.428761277,6,Pre,Images/Image15.jpg,Musics/Music15.wav,Image
5002,computer,50,4.221791863,6,Pre,Images/Image18.jpg,Musics/Music18.wav,Both
5002,computer,51,1.690483277,7,Pre,Images/Image10.jpg,Musics/Music10.wav,Both
5002,computer,52,1.009533424,5,Pre,Images/Image15.jpg,Musics/Music15.wav,Both
5002,computer,53,1.973474497,5,Pre,Images/Image12.jpg,Musics/Music12.wav,Both
5002,computer,0,11.38191154,7,Post,Images/Image1.jpg,Musics/Music1.wav,Music
5002,computer,1,2.681125044,6,Post,Images/Image15.jpg,Musics/Music15.wav,Music
5002,computer,2,2.220819367,7,Post,Images/Image11.jpg,Musics/Music11.wav,Image
5002,computer,3,4.79721911,5,Post,Images/Image13.jpg,Musics/Music13.wav,Both
5002,computer,4,2.966855443,6,Post,Images/Image9.jpg,Musics/Music9.wav,Music
5002,computer,5,4.125677252,7,Post,Images/Image16.jpg,Musics/Music16.wav,Both
5002,computer,6,1.593785056,5,Post,Images/Image16.jpg,Musics/Music16.wav,Image
5002,computer,7,3.663496557,5,Post,Images/Image18.jpg,Musics/Music18.wav,Both
5002,computer,8,2.390634532,8,Post,Images/Image6.jpg,Musics/Music6.wav,Music
5002,computer,9,1.028652168,8,Post,Images/Image7.jpg,Musics/Music7.wav,Both
5002,computer,10,1.281423026,7,Post,Images/Image7.jpg,Musics/Music7.wav,Image
5002,computer,11,1.621899549,6,Post,Images/Image5.jpg,Musics/Music5.wav,Both
5002,computer,12,2.258171036,6,Post,Images/Image18.jpg,Musics/Music18.wav,Music
5002,computer,13,1.479059617,7,Post,Images/Image11.jpg,Musics/Music11.wav,Both
5002,computer,14,1.407552575,5,Post,Images/Image9.jpg,Musics/Music9.wav,Image
5002,computer,15,8.287330121,6,Post,Images/Image15.jpg,Musics/Music15.wav,Image
5002,computer,16,2.275236988,5,Post,Images/Image18.jpg,Musics/Music18.wav,Image
5002,computer,17,1.319536155,6,Post,Images/Image4.jpg,Musics/Music4.wav,Image
5002,computer,18,2.011048946,8,Post,Images/Image5.jpg,Musics/Music5.wav,Music
5002,computer,19,5.188507805,6,Post,Images/Image12.jpg,Musics/Music12.wav,Both
5002,computer,20,1.432462762,6,Post,Images/Image3.jpg,Musics/Music3.wav,Image
5002,computer,21,2.098891214,6,Post,Images/Image8.jpg,Musics/Music8.wav,Image
5002,computer,22,2.1723781,6,Post,Images/Image10.jpg,Musics/Music10.wav,Music
5002,computer,23,1.049228705,7,Post,Images/Image14.jpg,Musics/Music14.wav,Image
5002,computer,24,0.878040759,8,Post,Images/Image6.jpg,Musics/Music6.wav,Both
5002,computer,25,1.638893733,7,Post,Images/Image5.jpg,Musics/Music5.wav,Image
5002,computer,26,1.297349953,6,Post,Images/Image16.jpg,Musics/Music16.wav,Music
5002,computer,27,1.532795749,5,Post,Images/Image13.jpg,Musics/Music13.wav,Image
5002,computer,28,1.301022752,6,Post,Images/Image12.jpg,Musics/Music12.wav,Music
5002,computer,29,3.360866259,6,Post,Images/Image8.jpg,Musics/Music8.wav,Both
5002,computer,30,2.210734849,7,Post,Images/Image9.jpg,Musics/Music9.wav,Both
5002,computer,31,6.380947809,7,Post,Images/Image14.jpg,Musics/Music14.wav,Both
5002,computer,32,1.139731275,6,Post,Images/Image14.jpg,Musics/Music14.wav,Music
5002,computer,33,1.281758272,4,Post,Images/Image17.jpg,Musics/Music17.wav,Image
5002,computer,34,2.303966042,6,Post,Images/Image11.jpg,Musics/Music11.wav,Music
5002,computer,35,0.970878333,7,Post,Images/Image8.jpg,Musics/Music8.wav,Music
5002,computer,36,1.005390583,6,Post,Images/Image15.jpg,Musics/Music15.wav,Both
5002,computer,37,1.505520677,7,Post,Images/Image3.jpg,Musics/Music3.wav,Both
5002,computer,38,3.284753516,7,Post,Images/Image3.jpg,Musics/Music3.wav,Music
5002,computer,39,2.778766326,5,Post,Images/Image17.jpg,Musics/Music17.wav,Both
5002,computer,40,2.219674538,5,Post,Images/Image2.jpg,Musics/Music2.wav,Image
5002,computer,41,0.93695206,6,Post,Images/Image13.jpg,Musics/Music13.wav,Music
5002,computer,42,0.70107456,6,Post,Images/Image10.jpg,Musics/Music10.wav,Image
5002,computer,43,3.504155196,5,Post,Images/Image1.jpg,Musics/Music1.wav,Image
5002,computer,44,1.350314272,8,Post,Images/Image7.jpg,Musics/Music7.wav,Music
5002,computer,45,1.049658692,7,Post,Images/Image10.jpg,Musics/Music10.wav,Both
5002,computer,46,0.981980088,5,Post,Images/Image12.jpg,Musics/Music12.wav,Image
5002,computer,47,1.941973232,7,Post,Images/Image2.jpg,Musics/Music2.wav,Music
5002,computer,48,0.984953931,7,Post,Images/Image6.jpg,Musics/Music6.wav,Image
5002,computer,49,1.197082343,7,Post,Images/Image4.jpg,Musics/Music4.wav,Music
5002,computer,50,2.186954439,6,Post,Images/Image1.jpg,Musics/Music1.wav,Both
5002,computer,51,1.13350116,7,Post,Images/Image4.jpg,Musics/Music4.wav,Both
5002,computer,52,0.971633953,6,Post,Images/Image17.jpg,Musics/Music17.wav,Music
5002,computer,53,3.13811079,5,Post,Images/Image2.jpg,Musics/Music2.wav,Both
5003,computer,0,1.3648952,8,Pre,Images/Image10.jpg,Musics/Music10.wav,Both
5003,computer,1,1.8187777,8,Pre,Images/Image17.jpg,Musics/Music17.wav,Music
5003,computer,2,3.1340369,7,Pre,Images/Image6.jpg,Musics/Music6.wav,Music
5003,computer,3,6.40098,5,Pre,Images/Image1.jpg,Musics/Music1.wav,Both
5003,computer,4,0.7706734,7,Pre,Images/Image6.jpg,Musics/Music6.wav,Image
5003,computer,5,0.9343591,7,Pre,Images/Image12.jpg,Musics/Music12.wav,Image
5003,computer,6,3.22927,4,Pre,Images/Image3.jpg,Musics/Music3.wav,Music
5003,computer,7,0.853839,6,Pre,Images/Image7.jpg,Musics/Music7.wav,Image
5003,computer,8,3.3111457,8,Pre,Images/Image8.jpg,Musics/Music8.wav,Both
5003,computer,9,2.542755,8,Pre,Images/Image2.jpg,Musics/Music2.wav,Both
5003,computer,10,1.2017169,1,Pre,Images/Image4.jpg,Musics/Music4.wav,Image
5003,computer,11,1.4752991,9,Pre,Images/Image1.jpg,Musics/Music1.wav,Music
5003,computer,12,0.7373496,1,Pre,Images/Image1.jpg,Musics/Music1.wav,Image
5003,computer,13,0.7628841,6,Pre,Images/Image14.jpg,Musics/Music14.wav,Both
5003,computer,14,2.3275316,7,Pre,Images/Image4.jpg,Musics/Music4.wav,Both
5003,computer,15,1.0048319,1,Pre,Images/Image14.jpg,Musics/Music14.wav,Image
5003,computer,16,1.4502356,8,Pre,Images/Image2.jpg,Musics/Music2.wav,Music
5003,computer,17,0.930723,2,Pre,Images/Image5.jpg,Musics/Music5.wav,Both
5003,computer,18,1.6837995,4,Pre,Images/Image9.jpg,Musics/Music9.wav,Music
5003,computer,19,0.4631164,5,Pre,Images/Image17.jpg,Musics/Music17.wav,Both
5003,computer,20,3.3916729,4,Pre,Images/Image15.jpg,Musics/Music15.wav,Music
5003,computer,21,1.6838792,8,Pre,Images/Image13.jpg,Musics/Music13.wav,Music
5003,computer,22,0.9271017,8,Pre,Images/Image16.jpg,Musics/Music16.wav,Music
5003,computer,23,3.2530201,8,Pre,Images/Image7.jpg,Musics/Music7.wav,Music
5003,computer,24,1.3471914,6,Pre,Images/Image18.jpg,Musics/Music18.wav,Both
5003,computer,25,0.9655872,6,Pre,Images/Image8.jpg,Musics/Music8.wav,Music
5003,computer,26,0.6804948,8,Pre,Images/Image14.jpg,Musics/Music14.wav,Music
5003,computer,27,0.6261496,6,Pre,Images/Image12.jpg,Musics/Music12.wav,Music
5003,computer,28,0.4124122,9,Pre,Images/Image16.jpg,Musics/Music16.wav,Image
5003,computer,29,0.9412582,2,Pre,Images/Image9.jpg,Musics/Music9.wav,Image
5003,computer,30,0.5453049,4,Pre,Images/Image5.jpg,Musics/Music5.wav,Image
5003,computer,31,1.6232833,6,Pre,Images/Image2.jpg,Musics/Music2.wav,Image
5003,computer,32,0.642808,3,Pre,Images/Image9.jpg,Musics/Music9.wav,Both
5003,computer,33,1.4734602,2,Pre,Images/Image13.jpg,Musics/Music13.wav,Image
5003,computer,34,1.1566404,8,Pre,Images/Image16.jpg,Musics/Music16.wav,Both
5003,computer,35,0.7039849,3,Pre,Images/Image6.jpg,Musics/Music6.wav,Both
5003,computer,36,2.0267913,7,Pre,Images/Image13.jpg,Musics/Music13.wav,Both
5003,computer,37,0.7975409,1,Pre,Images/Image11.jpg,Musics/Music11.wav,Image
5003,computer,38,2.4991933,8,Pre,Images/Image15.jpg,Musics/Music15.wav,Image
5003,computer,39,0.6545507,9,Pre,Images/Image3.jpg,Musics/Music3.wav,Image
5003,computer,40,2.0721521,7,Pre,Images/Image12.jpg,Musics/Music12.wav,Both
5003,computer,41,0.8053255,9,Pre,Images/Image10.jpg,Musics/Music10.wav,Image
5003,computer,42,0.5934885,1,Pre,Images/Image11.jpg,Musics/Music11.wav,Music
5003,computer,43,0.6524799,4,Pre,Images/Image18.jpg,Musics/Music18.wav,Music
5003,computer,44,1.1198298,3,Pre,Images/Image17.jpg,Musics/Music17.wav,Image
5003,computer,45,0.9580223,7,Pre,Images/Image11.jpg,Musics/Music11.wav,Both
5003,computer,46,0.4722547,1,Pre,Images/Image15.jpg,Musics/Music15.wav,Both
5003,computer,47,1.2852332,9,Pre,Images/Image10.jpg,Musics/Music10.wav,Music
5003,computer,48,3.2895706,3,Pre,Images/Image5.jpg,Musics/Music5.wav,Music
5003,computer,49,0.6531894,2,Pre,Images/Image4.jpg,Musics/Music4.wav,Music
5003,computer,50,34.3905552,8,Pre,Images/Image8.jpg,Musics/Music8.wav,Image
5003,computer,51,0.6866054,9,Pre,Images/Image3.jpg,Musics/Music3.wav,Both
5003,computer,52,2.6606936,3,Pre,Images/Image7.jpg,Musics/Music7.wav,Both
5003,computer,53,1.0870642,3,Pre,Images/Image18.jpg,Musics/Music18.wav,Image
5003,computer,0,1.7011657,2,Post,Images/Image5.jpg,Musics/Music5.wav,Both
5003,computer,1,1.589252,8,Post,Images/Image2.jpg,Musics/Music2.wav,Music
5003,computer,2,0.846353,1,Post,Images/Image5.jpg,Musics/Music5.wav,Music
5003,computer,3,1.1048193,3,Post,Images/Image14.jpg,Musics/Music14.wav,Both
5003,computer,4,0.9725614,9,Post,Images/Image16.jpg,Musics/Music16.wav,Image
5003,computer,5,1.8080967,9,Post,Images/Image16.jpg,Musics/Music16.wav,Both
5003,computer,6,1.7386832,6,Post,Images/Image9.jpg,Musics/Music9.wav,Music
5003,computer,7,0.5310577,6,Post,Images/Image7.jpg,Musics/Music7.wav,Both
5003,computer,8,1.5456984,8,Post,Images/Image9.jpg,Musics/Music9.wav,Both
5003,computer,9,1.3764742,7,Post,Images/Image11.jpg,Musics/Music11.wav,Image
5003,computer,10,2.6419418,2,Post,Images/Image4.jpg,Musics/Music4.wav,Both
5003,computer,11,9.6875253,2,Post,Images/Image18.jpg,Musics/Music18.wav,Image
5003,computer,12,1.62811,1,Post,Images/Image14.jpg,Musics/Music14.wav,Image
5003,computer,13,4.2949545,2,Post,Images/Image11.jpg,Musics/Music11.wav,Both
5003,computer,14,1.6043962,8,Post,Images/Image3.jpg,Musics/Music3.wav,Image
5003,computer,15,1.9338344,8,Post,Images/Image2.jpg,Musics/Music2.wav,Both
5003,computer,16,1.4873757,1,Post,Images/Image4.jpg,Musics/Music4.wav,Image
5003,computer,17,0.879314,9,Post,Images/Image10.jpg,Musics/Music10.wav,Both
5003,computer,18,0.9175998,6,Post,Images/Image10.jpg,Musics/Music10.wav,Music
5003,computer,19,1.7053872,6,Post,Images/Image5.jpg,Musics/Music5.wav,Image
5003,computer,20,1.3335174,8,Post,Images/Image16.jpg,Musics/Music16.wav,Music
5003,computer,21,0.8765002,3,Post,Images/Image7.jpg,Musics/Music7.wav,Image
5003,computer,22,0.9459349,8,Post,Images/Image2.jpg,Musics/Music2.wav,Image
5003,computer,23,1.3883221,9,Post,Images/Image13.jpg,Musics/Music13.wav,Music
5003,computer,24,1.4273168,8,Post,Images/Image14.jpg,Musics/Music14.wav,Music
5003,computer,25,1.2769072,5,Post,Images/Image18.jpg,Musics/Music18.wav,Both
5003,computer,26,1.3830321,6,Post,Images/Image13.jpg,Musics/Music13.wav,Image
5003,computer,27,2.1040143,2,Post,Images/Image15.jpg,Musics/Music15.wav,Image
5003,computer,28,1.4704663,6,Post,Images/Image12.jpg,Musics/Music12.wav,Both
5003,computer,29,0.9023093,9,Post,Images/Image10.jpg,Musics/Music10.wav,Image
5003,computer,30,1.7060451,5,Post,Images/Image15.jpg,Musics/Music15.wav,Music
5003,computer,31,3.5785708,5,Post,Images/Image11.jpg,Musics/Music11.wav,Music
5003,computer,32,0.78648,9,Post,Images/Image1.jpg,Musics/Music1.wav,Music
5003,computer,33,1.475225,3,Post,Images/Image9.jpg,Musics/Music9.wav,Image
5003,computer,34,0.824862,5,Post,Images/Image8.jpg,Musics/Music8.wav,Both
5003,computer,35,1.0348654,7,Post,Images/Image7.jpg,Musics/Music7.wav,Music
5003,computer,36,1.6288707,6,Post,Images/Image17.jpg,Musics/Music17.wav,Both
5003,computer,37,2.1649759,4,Post,Images/Image8.jpg,Musics/Music8.wav,Image
5003,computer,38,1.181366,6,Post,Images/Image18.jpg,Musics/Music18.wav,Music
5003,computer,39,1.5231119,2,Post,Images/Image1.jpg,Musics/Music1.wav,Image
5003,computer,40,6.8458392,2,Post,Images/Image6.jpg,Musics/Music6.wav,Image
5003,computer,41,0.9064494,3,Post,Images/Image3.jpg,Musics/Music3.wav,Both
5003,computer,42,1.4375836,3,Post,Images/Image15.jpg,Musics/Music15.wav,Both
5003,computer,43,1.8023139,8,Post,Images/Image17.jpg,Musics/Music17.wav,Music
5003,computer,44,1.1955326,2,Post,Images/Image6.jpg,Musics/Music6.wav,Both
5003,computer,45,3.5026772,2,Post,Images/Image3.jpg,Musics/Music3.wav,Music
5003,computer,46,2.6722306,3,Post,Images/Image17.jpg,Musics/Music17.wav,Image
5003,computer,47,1.7329474,6,Post,Images/Image1.jpg,Musics/Music1.wav,Both
5003,computer,48,1.8301514,7,Post,Images/Image13.jpg,Musics/Music13.wav,Both
5003,computer,49,2.2864018,3,Post,Images/Image4.jpg,Musics/Music4.wav,Music
5003,computer,50,1.1722887,7,Post,Images/Image12.jpg,Musics/Music12.wav,Image
5003,computer,51,1.6600246,6,Post,Images/Image6.jpg,Musics/Music6.wav,Music
5003,computer,52,0.9444227,4,Post,Images/Image8.jpg,Musics/Music8.wav,Music
5003,computer,53,0.8000172,7,Post,Images/Image12.jpg,Musics/Music12.wav,Music
5004,computer,0,3.3401718,6,Pre,Images/Image18.jpg,Musics/Music18.wav,Both
5004,computer,1,1.2584772,2,Pre,Images/Image8.jpg,Musics/Music8.wav,Image
5004,computer,2,1.2226376,3,Pre,Images/Image4.jpg,Musics/Music4.wav,Music
5004,computer,3,1.1134636,4,Pre,Images/Image13.jpg,Musics/Music13.wav,Music
5004,computer,4,1.3450532,7,Pre,Images/Image12.jpg,Musics/Music12.wav,Music
5004,computer,5,1.4356291,7,Pre,Images/Image14.jpg,Musics/Music14.wav,Music
5004,computer,6,1.8712913,3,Pre,Images/Image5.jpg,Musics/Music5.wav,Music
5004,computer,7,2.7315242,4,Pre,Images/Image6.jpg,Musics/Music6.wav,Music
5004,computer,8,1.4475462,6,Pre,Images/Image14.jpg,Musics/Music14.wav,Image
5004,computer,9,1.7029211,2,Pre,Images/Image5.jpg,Musics/Music5.wav,Both
5004,computer,10,1.108142,2,Pre,Images/Image5.jpg,Musics/Music5.wav,Image
5004,computer,11,1.8619732,2,Pre,Images/Image1.jpg,Musics/Music1.wav,Music
5004,computer,12,1.0512207,6,Pre,Images/Image10.jpg,Musics/Music10.wav,Both
5004,computer,13,1.0604241,4,Pre,Images/Image14.jpg,Musics/Music14.wav,Both
5004,computer,14,1.6617427,7,Pre,Images/Image2.jpg,Musics/Music2.wav,Both
5004,computer,15,2.5447025,5,Pre,Images/Image7.jpg,Musics/Music7.wav,Image
5004,computer,16,1.2873719,4,Pre,Images/Image17.jpg,Musics/Music17.wav,Both
5004,computer,17,1.25448,6,Pre,Images/Image10.jpg,Musics/Music10.wav,Music
5004,computer,18,1.3426599,3,Pre,Images/Image6.jpg,Musics/Music6.wav,Both
5004,computer,19,1.2780021,6,Pre,Images/Image10.jpg,Musics/Music10.wav,Image
5004,computer,20,1.6343155,3,Pre,Images/Image3.jpg,Musics/Music3.wav,Music
5004,computer,21,1.1799821,6,Pre,Images/Image3.jpg,Musics/Music3.wav,Image
5004,computer,22,1.4130183,2,Pre,Images/Image8.jpg,Musics/Music8.wav,Both
5004,computer,23,1.0186831,6,Pre,Images/Image17.jpg,Musics/Music17.wav,Music
5004,computer,24,1.858824,5,Pre,Images/Image13.jpg,Musics/Music13.wav,Both
5004,computer,25,1.3196697,6,Pre,Images/Image2.jpg,Musics/Music2.wav,Music
5004,computer,26,1.3298258,5,Pre,Images/Image9.jpg,Musics/Music9.wav,Image
5004,computer,27,1.2122507,6,Pre,Images/Image18.jpg,Musics/Music18.wav,Image
5004,computer,28,1.1055967,7,Pre,Images/Image16.jpg,Musics/Music16.wav,Both
5004,computer,29,3.2165365,4,Pre,Images/Image1.jpg,Musics/Music1.wav,Image
5004,computer,30,2.2380627,2,Pre,Images/Image15.jpg,Musics/Music15.wav,Image
5004,computer,31,1.1172791,6,Pre,Images/Image11.jpg,Musics/Music11.wav,Music
5004,computer,32,1.3989233,4,Pre,Images/Image7.jpg,Musics/Music7.wav,Music
5004,computer,33,1.2378718,8,Pre,Images/Image12.jpg,Musics/Music12.wav,Both
5004,computer,34,1.7588703,3,Pre,Images/Image4.jpg,Musics/Music4.wav,Image
5004,computer,35,1.3022288,7,Pre,Images/Image12.jpg,Musics/Music12.wav,Image
5004,computer,36,1.112194,2,Pre,Images/Image11.jpg,Musics/Music11.wav,Image
5004,computer,37,1.236439,3,Pre,Images/Image11.jpg,Musics/Music11.wav,Both
5004,computer,38,1.3743308,4,Pre,Images/Image3.jpg,Musics/Music3.wav,Both
5004,computer,39,1.8453563,3,Pre,Images/Image1.jpg,Musics/Music1.wav,Both
5004,computer,40,11.5322249,3,Pre,Images/Image6.jpg,Musics/Music6.wav,Image
5004,computer,41,2.6325254,2,Pre,Images/Image15.jpg,Musics/Music15.wav,Both
5004,computer,42,1.4756884,6,Pre,Images/Image18.jpg,Musics/Music18.wav,Music
5004,computer,43,1.6226072,5,Pre,Images/Image7.jpg,Musics/Music7.wav,Both
5004,computer,44,2.4216189,2,Pre,Images/Image9.jpg,Musics/Music9.wav,Both
5004,computer,45,3.740023,5,Pre,Images/Image2.jpg,Musics/Music2.wav,Image
5004,computer,46,1.3862948,6,Pre,Images/Image16.jpg,Musics/Music16.wav,Music
5004,computer,47,2.963947,3,Pre,Images/Image13.jpg,Musics/Music13.wav,Image
5004,computer,48,1.1072259,3,Pre,Images/Image8.jpg,Musics/Music8.wav,Music
5004,computer,49,2.9247568,6,Pre,Images/Image16.jpg,Musics/Music16.wav,Image
5004,computer,50,2.1004748,3,Pre,Images/Image17.jpg,Musics/Music17.wav,Image
5004,computer,51,1.604882,1,Pre,Images/Image4.jpg,Musics/Music4.wav,Both
5004,computer,52,1.1337182,6,Pre,Images/Image15.jpg,Musics/Music15.wav,Music
5004,computer,53,1.1396262,2,Pre,Images/Image9.jpg,Musics/Music9.wav,Music
5004,computer,0,1.9442739,4,Post,Images/Image11.jpg,Musics/Music11.wav,Both
5004,computer,1,2.2512855,2,Post,Images/Image8.jpg,Musics/Music8.wav,Both
5004,computer,2,1.3361861,7,Post,Images/Image12.jpg,Musics/Music12.wav,Both
5004,computer,3,2.2183035,2,Post,Images/Image4.jpg,Musics/Music4.wav,Image
5004,computer,4,2.2401083,3,Post,Images/Image7.jpg,Musics/Music7.wav,Music
5004,computer,5,3.7541696,4,Post,Images/Image13.jpg,Musics/Music13.wav,Both
5004,computer,6,4.3019279,4,Post,Images/Image17.jpg,Musics/Music17.wav,Music
5004,computer,7,1.6572796,6,Post,Images/Image18.jpg,Musics/Music18.wav,Music
5004,computer,8,2.9666508,2,Post,Images/Image8.jpg,Musics/Music8.wav,Image
5004,computer,9,2.0438961,7,Post,Images/Image12.jpg,Musics/Music12.wav,Image
5004,computer,10,3.0917788,6,Post,Images/Image14.jpg,Musics/Music14.wav,Music
5004,computer,11,1.0993913,6,Post,Images/Image10.jpg,Musics/Music10.wav,Both
5004,computer,12,1.7309871,2,Post,Images/Image4.jpg,Musics/Music4.wav,Both
5004,computer,13,1.8168242,4,Post,Images/Image5.jpg,Musics/Music5.wav,Image
5004,computer,14,2.0445732,3,Post,Images/Image14.jpg,Musics/Music14.wav,Image
5004,computer,15,2.0664933,5,Post,Images/Image2.jpg,Musics/Music2.wav,Image
5004,computer,16,3.1456969,2,Post,Images/Image15.jpg,Musics/Music15.wav,Image
5004,computer,17,1.9919771,2,Post,Images/Image5.jpg,Musics/Music5.wav,Both
5004,computer,18,1.9979703,4,Post,Images/Image13.jpg,Musics/Music13.wav,Image
5004,computer,19,2.2587886,6,Post,Images/Image18.jpg,Musics/Music18.wav,Image
5004,computer,20,2.1061475,6,Post,Images/Image11.jpg,Musics/Music11.wav,Music
5004,computer,21,3.3375505,5,Post,Images/Image14.jpg,Musics/Music14.wav,Both
5004,computer,22,3.3055591,7,Post,Images/Image18.jpg,Musics/Music18.wav,Both
5004,computer,23,2.586064,3,Post,Images/Image17.jpg,Musics/Music17.wav,Image
5004,computer,24,1.7537575,2,Post,Images/Image8.jpg,Musics/Music8.wav,Music
5004,computer,25,2.2693795,5,Post,Images/Image3.jpg,Musics/Music3.wav,Image
5004,computer,26,2.9851666,6,Post,Images/Image10.jpg,Musics/Music10.wav,Music
5004,computer,27,1.3010838,2,Post,Images/Image5.jpg,Musics/Music5.wav,Music
5004,computer,28,2.3468058,4,Post,Images/Image15.jpg,Musics/Music15.wav,Both
5004,computer,29,1.5084398,4,Post,Images/Image17.jpg,Musics/Music17.wav,Both
5004,computer,30,3.3098436,2,Post,Images/Image9.jpg,Musics/Music9.wav,Image
5004,computer,31,3.7854538,4,Post,Images/Image7.jpg,Musics/Music7.wav,Image
5004,computer,32,2.5160299,6,Post,Images/Image2.jpg,Musics/Music2.wav,Both
5004,computer,33,1.2638217,8,Post,Images/Image12.jpg,Musics/Music12.wav,Music
5004,computer,34,1.9446236,7,Post,Images/Image16.jpg,Musics/Music16.wav,Music
5004,computer,35,1.4292936,4,Post,Images/Image1.jpg,Musics/Music1.wav,Both
5004,computer,36,1.5850197,2,Post,Images/Image1.jpg,Musics/Music1.wav,Image
5004,computer,37,1.6621256,4,Post,Images/Image6.jpg,Musics/Music6.wav,Music
5004,computer,38,1.5570411,3,Post,Images/Image4.jpg,Musics/Music4.wav,Music
5004,computer,39,1.4655207,4,Post,Images/Image1.jpg,Musics/Music1.wav,Music
5004,computer,40,2.2449915,3,Post,Images/Image9.jpg,Musics/Music9.wav,Both
5004,computer,41,1.8442851,7,Post,Images/Image16.jpg,Musics/Music16.wav,Both
5004,computer,42,2.6709282,2,Post,Images/Image6.jpg,Musics/Music6.wav,Image
5004,computer,43,1.7505815,6,Post,Images/Image2.jpg,Musics/Music2.wav,Music
5004,computer,44,1.649522,3,Post,Images/Image11.jpg,Musics/Music11.wav,Image
5004,computer,45,1.6073258,4,Post,Images/Image3.jpg,Musics/Music3.wav,Both
5004,computer,46,2.2275893,3,Post,Images/Image9.jpg,Musics/Music9.wav,Music
5004,computer,47,1.6962053,6,Post,Images/Image10.jpg,Musics/Music10.wav,Image
5004,computer,48,1.9316595,2,Post,Images/Image3.jpg,Musics/Music3.wav,Music
5004,computer,49,1.8572267,5,Post,Images/Image15.jpg,Musics/Music15.wav,Music
5004,computer,50,1.7683038,6,Post,Images/Image13.jpg,Musics/Music13.wav,Music
5004,computer,51,3.4633389,3,Post,Images/Image7.jpg,Musics/Music7.wav,Both
5004,computer,52,1.5773862,3,Post,Images/Image6.jpg,Musics/Music6.wav,Both
5004,computer,53,2.437116,7,Post,Images/Image16.jpg,Musics/Music16.wav,Image
5005,computer,0,2.484359329,7,Pre,Images/Image1.jpg,Musics/Music1.wav,Both
5005,computer,1,2.597782117,2,Pre,Images/Image14.jpg,Musics/Music14.wav,Image
5005,computer,2,2.207032396,4,Pre,Images/Image10.jpg,Musics/Music10.wav,Both
5005,computer,3,2.386181838,6,Pre,Images/Image9.jpg,Musics/Music9.wav,Music
5005,computer,4,3.664512849,7,Pre,Images/Image8.jpg,Musics/Music8.wav,Image
5005,computer,5,1.67788488,3,Pre,Images/Image14.jpg,Musics/Music14.wav,Both
5005,computer,6,2.475097803,4,Pre,Images/Image8.jpg,Musics/Music8.wav,Both
5005,computer,7,8.647343841,3,Pre,Images/Image1.jpg,Musics/Music1.wav,Music
5005,computer,8,1.501919276,5,Pre,Images/Image11.jpg,Musics/Music11.wav,Music
5005,computer,9,1.088789555,2,Pre,Images/Image16.jpg,Musics/Music16.wav,Music
5005,computer,10,1.407899432,4,Pre,Images/Image18.jpg,Musics/Music18.wav,Image
5005,computer,11,14.33667486,4,Pre,Images/Image17.jpg,Musics/Music17.wav,Both
5005,computer,12,1.542859949,5,Pre,Images/Image6.jpg,Musics/Music6.wav,Both
5005,computer,13,23.80408814,3,Pre,Images/Image17.jpg,Musics/Music17.wav,Image
5005,computer,14,1.312047259,4,Pre,Images/Image10.jpg,Musics/Music10.wav,Music
5005,computer,15,13.38204114,3,Pre,Images/Image2.jpg,Musics/Music2.wav,Music
5005,computer,16,1.380249592,2,Pre,Images/Image5.jpg,Musics/Music5.wav,Music
5005,computer,17,1.141698293,3,Pre,Images/Image18.jpg,Musics/Music18.wav,Both
5005,computer,18,3.693515254,4,Pre,Images/Image7.jpg,Musics/Music7.wav,Music
5005,computer,19,1.397607827,6,Pre,Images/Image13.jpg,Musics/Music13.wav,Both
5005,computer,20,1.351201122,3,Pre,Images/Image2.jpg,Musics/Music2.wav,Image
5005,computer,21,2.382974208,3,Pre,Images/Image12.jpg,Musics/Music12.wav,Music
5005,computer,22,5.079298455,4,Pre,Images/Image16.jpg,Musics/Music16.wav,Image
5005,computer,23,2.227358778,3,Pre,Images/Image9.jpg,Musics/Music9.wav,Both
5005,computer,24,1.218379365,5,Pre,Images/Image11.jpg,Musics/Music11.wav,Image
5005,computer,25,1.867337247,8,Pre,Images/Image4.jpg,Musics/Music4.wav,Both
5005,computer,26,1.897708389,4,Pre,Images/Image2.jpg,Musics/Music2.wav,Both
5005,computer,27,1.657147669,4,Pre,Images/Image15.jpg,Musics/Music15.wav,Image
5005,computer,28,6.672295174,3,Pre,Images/Image5.jpg,Musics/Music5.wav,Image
5005,computer,29,2.044042491,6,Pre,Images/Image11.jpg,Musics/Music11.wav,Both
5005,computer,30,3.424577236,5,Pre,Images/Image15.jpg,Musics/Music15.wav,Music
5005,computer,31,1.070872358,7,Pre,Images/Image3.jpg,Musics/Music3.wav,Image
5005,computer,32,3.723559534,6,Pre,Images/Image9.jpg,Musics/Music9.wav,Image
5005,computer,33,0.99630202,8,Pre,Images/Image4.jpg,Musics/Music4.wav,Music
5005,computer,34,0.768543166,2,Pre,Images/Image16.jpg,Musics/Music16.wav,Both
5005,computer,35,0.570730712,6,Pre,Images/Image1.jpg,Musics/Music1.wav,Image
5005,computer,36,0.89998231,6,Pre,Images/Image12.jpg,Musics/Music12.wav,Image
5005,computer,37,6.792308661,6,Pre,Images/Image3.jpg,Musics/Music3.wav,Music
5005,computer,38,5.719888502,6,Pre,Images/Image15.jpg,Musics/Music15.wav,Both
5005,computer,39,3.171053795,7,Pre,Images/Image10.jpg,Musics/Music10.wav,Image
5005,computer,40,1.741936912,7,Pre,Images/Image7.jpg,Musics/Music7.wav,Image
5005,computer,41,0.656822254,8,Pre,Images/Image12.jpg,Musics/Music12.wav,Both
5005,computer,42,0.879146546,8,Pre,Images/Image17.jpg,Musics/Music17.wav,Music
5005,computer,43,2.773297007,4,Pre,Images/Image5.jpg,Musics/Music5.wav,Both
5005,computer,44,27.08435487,4,Pre,Images/Image18.jpg,Musics/Music18.wav,Music
5005,computer,45,1.874147232,6,Pre,Images/Image8.jpg,Musics/Music8.wav,Music
5005,computer,46,1.434954848,4,Pre,Images/Image7.jpg,Musics/Music7.wav,Both
5005,computer,47,0.681851989,9,Pre,Images/Image14.jpg,Musics/Music14.wav,Music
5005,computer,48,2.03243101,7,Pre,Images/Image13.jpg,Musics/Music13.wav,Music
5005,computer,49,0.752559601,4,Pre,Images/Image3.jpg,Musics/Music3.wav,Both
5005,computer,50,27.96951486,4,Pre,Images/Image13.jpg,Musics/Music13.wav,Image
5005,computer,51,1.357178124,6,Pre,Images/Image4.jpg,Musics/Music4.wav,Image
5005,computer,52,1.579479046,7,Pre,Images/Image6.jpg,Musics/Music6.wav,Music
5005,computer,53,0.77223104,7,Pre,Images/Image6.jpg,Musics/Music6.wav,Image
5005,computer,0,2.721696926,8,Post,Images/Image12.jpg,Musics/Music12.wav,Both
5005,computer,1,2.919201873,6,Post,Images/Image12.jpg,Musics/Music12.wav,Music
5005,computer,2,2.099631501,7,Post,Images/Image1.jpg,Musics/Music1.wav,Both
5005,computer,3,1.246922415,6,Post,Images/Image14.jpg,Musics/Music14.wav,Image
5005,computer,4,2.814470435,8,Post,Images/Image7.jpg,Musics/Music7.wav,Both
5005,computer,5,0.89915568,5,Post,Images/Image18.jpg,Musics/Music18.wav,Music
5005,computer,6,22.07630735,6,Post,Images/Image6.jpg,Musics/Music6.wav,Both
5005,computer,7,1.135523997,5,Post,Images/Image3.jpg,Musics/Music3.wav,Image
5005,computer,8,1.114748496,4,Post,Images/Image2.jpg,Musics/Music2.wav,Music
5005,computer,9,3.736655263,5,Post,Images/Image8.jpg,Musics/Music8.wav,Image
5005,computer,10,2.661157209,4,Post,Images/Image6.jpg,Musics/Music6.wav,Music
5005,computer,11,1.340372135,4,Post,Images/Image12.jpg,Musics/Music12.wav,Image
5005,computer,12,0.809676358,6,Post,Images/Image4.jpg,Musics/Music4.wav,Image
5005,computer,13,4.361363912,4,Post,Images/Image9.jpg,Musics/Music9.wav,Image
5005,computer,14,4.519251831,6,Post,Images/Image13.jpg,Musics/Music13.wav,Music
5005,computer,15,1.624827904,2,Post,Images/Image8.jpg,Musics/Music8.wav,Both
5005,computer,16,2.589301459,8,Post,Images/Image18.jpg,Musics/Music18.wav,Image
5005,computer,17,1.385442492,6,Post,Images/Image9.jpg,Musics/Music9.wav,Music
5005,computer,18,1.541686319,6,Post,Images/Image3.jpg,Musics/Music3.wav,Both
5005,computer,19,4.133545031,3,Post,Images/Image17.jpg,Musics/Music17.wav,Image
5005,computer,20,1.332395635,4,Post,Images/Image2.jpg,Musics/Music2.wav,Image
5005,computer,21,2.499361362,4,Post,Images/Image7.jpg,Musics/Music7.wav,Image
5005,computer,22,0.607238048,6,Post,Images/Image1.jpg,Musics/Music1.wav,Music
5005,computer,23,4.508548587,8,Post,Images/Image15.jpg,Musics/Music15.wav,Music
5005,computer,24,0.9040523,3,Post,Images/Image13.jpg,Musics/Music13.wav,Both
5005,computer,25,5.928918596,8,Post,Images/Image1.jpg,Musics/Music1.wav,Image
5005,computer,26,10.77793105,4,Post,Images/Image16.jpg,Musics/Music16.wav,Both
5005,computer,27,62.61805557,4,Post,Images/Image5.jpg,Musics/Music5.wav,Both
5005,computer,28,0.806095995,8,Post,Images/Image17.jpg,Musics/Music17.wav,Music
5005,computer,29,6.20639921,7,Post,Images/Image10.jpg,Musics/Music10.wav,Both
5005,computer,30,1.284557513,4,Post,Images/Image13.jpg,Musics/Music13.wav,Image
5005,computer,31,1.582933749,3,Post,Images/Image7.jpg,Musics/Music7.wav,Music
5005,computer,32,2.20276767,3,Post,Images/Image11.jpg,Musics/Music11.wav,Music
5005,computer,33,2.84467366,6,Post,Images/Image4.jpg,Musics/Music4.wav,Both
5005,computer,34,1.105863871,8,Post,Images/Image9.jpg,Musics/Music9.wav,Both
5005,computer,35,2.620022435,7,Post,Images/Image15.jpg,Musics/Music15.wav,Both
5005,computer,36,24.716747,7,Post,Images/Image4.jpg,Musics/Music4.wav,Music
5005,computer,37,1.429587709,6,Post,Images/Image5.jpg,Musics/Music5.wav,Image
5005,computer,38,3.05938424,6,Post,Images/Image15.jpg,Musics/Music15.wav,Image
5005,computer,39,2.179374193,6,Post,Images/Image14.jpg,Musics/Music14.wav,Both
5005,computer,40,2.4013745,6,Post,Images/Image18.jpg,Musics/Music18.wav,Both
5005,computer,41,0.927170527,3,Post,Images/Image16.jpg,Musics/Music16.wav,Music
5005,computer,42,0.823194867,6,Post,Images/Image6.jpg,Musics/Music6.wav,Image
5005,computer,43,1.021192069,5,Post,Images/Image10.jpg,Musics/Music10.wav,Music
5005,computer,44,1.168301837,4,Post,Images/Image11.jpg,Musics/Music11.wav,Both
5005,computer,45,0.876740348,3,Post,Images/Image17.jpg,Musics/Music17.wav,Both
5005,computer,46,1.062660486,4,Post,Images/Image2.jpg,Musics/Music2.wav,Both
5005,computer,47,1.42470355,7,Post,Images/Image14.jpg,Musics/Music14.wav,Music
5005,computer,48,1.416571352,2,Post,Images/Image8.jpg,Musics/Music8.wav,Music
5005,computer,49,4.875892287,3,Post,Images/Image16.jpg,Musics/Music16.wav,Image
5005,computer,50,0.922614272,4,Post,Images/Image3.jpg,Musics/Music3.wav,Music
5005,computer,51,2.609732376,3,Post,Images/Image5.jpg,Musics/Music5.wav,Music
5005,computer,52,2.24144533,6,Post,Images/Image10.jpg,Musics/Music10.wav,Image
5005,computer,53,0.892880465,3,Post,Images/Image11.jpg,Musics/Music11.wav,Image
5006,computer,0,1.182930669,6,Pre,Images/Image2.jpg,Musics/Music2.wav,Both
5006,computer,1,1.028896888,4,Pre,Images/Image3.jpg,Musics/Music3.wav,Image
5006,computer,2,0.829580309,6,Pre,Images/Image16.jpg,Musics/Music16.wav,Image
5006,computer,3,0.746432916,3,Pre,Images/Image9.jpg,Musics/Music9.wav,Both
5006,computer,4,1.418418581,6,Pre,Images/Image10.jpg,Musics/Music10.wav,Image
5006,computer,5,0.808738588,5,Pre,Images/Image11.jpg,Musics/Music11.wav,Both
5006,computer,6,1.473016249,7,Pre,Images/Image2.jpg,Musics/Music2.wav,Music
5006,computer,7,0.825475842,2,Pre,Images/Image5.jpg,Musics/Music5.wav,Both
5006,computer,8,1.019560154,8,Pre,Images/Image7.jpg,Musics/Music7.wav,Image
5006,computer,9,0.974993248,8,Pre,Images/Image10.jpg,Musics/Music10.wav,Both
5006,computer,10,0.835533469,7,Pre,Images/Image9.jpg,Musics/Music9.wav,Music
5006,computer,11,0.920649794,4,Pre,Images/Image16.jpg,Musics/Music16.wav,Music
5006,computer,12,0.676796123,5,Pre,Images/Image16.jpg,Musics/Music16.wav,Both
5006,computer,13,2.119735381,2,Pre,Images/Image15.jpg,Musics/Music15.wav,Both
5006,computer,14,0.713291757,2,Pre,Images/Image9.jpg,Musics/Music9.wav,Image
5006,computer,15,1.188603196,2,Pre,Images/Image14.jpg,Musics/Music14.wav,Both
5006,computer,16,1.638844649,7,Pre,Images/Image13.jpg,Musics/Music13.wav,Music
5006,computer,17,1.331047669,5,Pre,Images/Image7.jpg,Musics/Music7.wav,Music
5006,computer,18,1.212366404,2,Pre,Images/Image4.jpg,Musics/Music4.wav,Music
5006,computer,19,1.805748912,6,Pre,Images/Image12.jpg,Musics/Music12.wav,Both
5006,computer,20,3.057004331,6,Pre,Images/Image3.jpg,Musics/Music3.wav,Both
5006,computer,21,1.087204977,1,Pre,Images/Image1.jpg,Musics/Music1.wav,Music
5006,computer,22,2.157656809,5,Pre,Images/Image3.jpg,Musics/Music3.wav,Music
5006,computer,23,1.044076853,6,Pre,Images/Image11.jpg,Musics/Music11.wav,Music
5006,computer,24,1.646397537,7,Pre,Images/Image12.jpg,Musics/Music12.wav,Music
5006,computer,25,2.85367156,3,Pre,Images/Image4.jpg,Musics/Music4.wav,Both
5006,computer,26,1.283758612,6,Pre,Images/Image7.jpg,Musics/Music7.wav,Both
5006,computer,27,1.283648401,7,Pre,Images/Image2.jpg,Musics/Music2.wav,Image
5006,computer,28,2.166350304,3,Pre,Images/Image14.jpg,Musics/Music14.wav,Music
5006,computer,29,1.933380379,3,Pre,Images/Image5.jpg,Musics/Music5.wav,Music
5006,computer,30,1.62968585,4,Pre,Images/Image6.jpg,Musics/Music6.wav,Image
5006,computer,31,1.384217177,3,Pre,Images/Image8.jpg,Musics/Music8.wav,Image
5006,computer,32,0.629341244,3,Pre,Images/Image8.jpg,Musics/Music8.wav,Music
5006,computer,33,1.20715466,1,Pre,Images/Image13.jpg,Musics/Music13.wav,Image
5006,computer,34,0.953926329,6,Pre,Images/Image17.jpg,Musics/Music17.wav,Music
5006,computer,35,0.865095227,1,Pre,Images/Image14.jpg,Musics/Music14.wav,Image
5006,computer,36,0.755153873,7,Pre,Images/Image10.jpg,Musics/Music10.wav,Music
5006,computer,37,0.580373474,5,Pre,Images/Image18.jpg,Musics/Music18.wav,Both
5006,computer,38,1.706717139,7,Pre,Images/Image6.jpg,Musics/Music6.wav,Music
5006,computer,39,0.728721351,4,Pre,Images/Image8.jpg,Musics/Music8.wav,Both
5006,computer,40,0.586180846,4,Pre,Images/Image17.jpg,Musics/Music17.wav,Both
5006,computer,41,1.431914155,6,Pre,Images/Image12.jpg,Musics/Music12.wav,Image
5006,computer,42,0.552351193,5,Pre,Images/Image13.jpg,Musics/Music13.wav,Both
5006,computer,43,1.175956015,2,Pre,Images/Image1.jpg,Musics/Music1.wav,Both
5006,computer,44,0.500897646,2,Pre,Images/Image11.jpg,Musics/Music11.wav,Image
5006,computer,45,0.640481408,1,Pre,Images/Image4.jpg,Musics/Music4.wav,Image
5006,computer,46,0.714825182,3,Pre,Images/Image6.jpg,Musics/Music6.wav,Both
5006,computer,47,0.525820854,2,Pre,Images/Image15.jpg,Musics/Music15.wav,Image
5006,computer,48,0.734341036,7,Pre,Images/Image5.jpg,Musics/Music5.wav,Image
5006,computer,49,1.144221797,6,Pre,Images/Image18.jpg,Musics/Music18.wav,Music
5006,computer,50,0.726300742,6,Pre,Images/Image18.jpg,Musics/Music18.wav,Image
5006,computer,51,0.779244298,1,Pre,Images/Image1.jpg,Musics/Music1.wav,Image
5006,computer,52,0.52574751,3,Pre,Images/Image17.jpg,Musics/Music17.wav,Image
5006,computer,53,0.506827118,3,Pre,Images/Image15.jpg,Musics/Music15.wav,Music
5006,computer,0,1.560231111,5,Post,Images/Image9.jpg,Musics/Music9.wav,Music
5006,computer,1,2.355398311,6,Post,Images/Image1.jpg,Musics/Music1.wav,Music
5006,computer,2,2.212864449,7,Post,Images/Image17.jpg,Musics/Music17.wav,Both
5006,computer,3,2.624085819,7,Post,Images/Image16.jpg,Musics/Music16.wav,Both
5006,computer,4,1.54915223,1,Post,Images/Image6.jpg,Musics/Music6.wav,Image
5006,computer,5,1.175520159,3,Post,Images/Image2.jpg,Musics/Music2.wav,Music
5006,computer,6,4.125072851,2,Post,Images/Image11.jpg,Musics/Music11.wav,Image
5006,computer,7,1.024858443,1,Post,Images/Image13.jpg,Musics/Music13.wav,Both
5006,computer,8,0.866864808,3,Post,Images/Image6.jpg,Musics/Music6.wav,Both
5006,computer,9,1.163686838,3,Post,Images/Image18.jpg,Musics/Music18.wav,Music
5006,computer,10,1.603297323,8,Post,Images/Image16.jpg,Musics/Music16.wav,Image
5006,computer,11,1.793471579,5,Post,Images/Image14.jpg,Musics/Music14.wav,Both
5006,computer,12,0.976657559,2,Post,Images/Image17.jpg,Musics/Music17.wav,Image
5006,computer,13,1.012388252,2,Post,Images/Image14.jpg,Musics/Music14.wav,Image
5006,computer,14,0.937803087,3,Post,Images/Image5.jpg,Musics/Music5.wav,Both
5006,computer,15,1.573810076,6,Post,Images/Image14.jpg,Musics/Music14.wav,Music
5006,computer,16,2.417791287,7,Post,Images/Image2.jpg,Musics/Music2.wav,Image
5006,computer,17,0.670403808,1,Post,Images/Image6.jpg,Musics/Music6.wav,Music
5006,computer,18,0.691967863,3,Post,Images/Image8.jpg,Musics/Music8.wav,Both
5006,computer,19,0.685653437,1,Post,Images/Image1.jpg,Musics/Music1.wav,Image
5006,computer,20,1.012106133,6,Post,Images/Image11.jpg,Musics/Music11.wav,Music
5006,computer,21,1.471169354,6,Post,Images/Image7.jpg,Musics/Music7.wav,Image
5006,computer,22,0.532247645,7,Post,Images/Image10.jpg,Musics/Music10.wav,Image
5006,computer,23,1.348558125,3,Post,Images/Image15.jpg,Musics/Music15.wav,Both
5006,computer,24,1.412975046,6,Post,Images/Image7.jpg,Musics/Music7.wav,Both
5006,computer,25,1.362848393,6,Post,Images/Image3.jpg,Musics/Music3.wav,Both
5006,computer,26,3.50162872,6,Post,Images/Image13.jpg,Musics/Music13.wav,Image
5006,computer,27,0.685199871,1,Post,Images/Image4.jpg,Musics/Music4.wav,Both
5006,computer,28,1.925191979,6,Post,Images/Image12.jpg,Musics/Music12.wav,Music
5006,computer,29,1.258488162,7,Post,Images/Image13.jpg,Musics/Music13.wav,Music
5006,computer,30,0.892185942,2,Post,Images/Image9.jpg,Musics/Music9.wav,Image
5006,computer,31,0.798690993,6,Post,Images/Image18.jpg,Musics/Music18.wav,Both
5006,computer,32,0.982199207,4,Post,Images/Image3.jpg,Musics/Music3.wav,Music
5006,computer,33,2.031685074,6,Post,Images/Image17.jpg,Musics/Music17.wav,Music
5006,computer,34,0.728827285,6,Post,Images/Image10.jpg,Musics/Music10.wav,Music
5006,computer,35,0.627929616,6,Post,Images/Image7.jpg,Musics/Music7.wav,Music
5006,computer,36,2.851400942,5,Post,Images/Image16.jpg,Musics/Music16.wav,Music
5006,computer,37,2.164466892,8,Post,Images/Image11.jpg,Musics/Music11.wav,Both
5006,computer,38,1.439067509,7,Post,Images/Image15.jpg,Musics/Music15.wav,Image
5006,computer,39,4.644364099,4,Post,Images/Image1.jpg,Musics/Music1.wav,Both
5006,computer,40,2.795494813,4,Post,Images/Image4.jpg,Musics/Music4.wav,Music
5006,computer,41,2.486928949,9,Post,Images/Image10.jpg,Musics/Music10.wav,Both
5006,computer,42,1.435488217,3,Post,Images/Image4.jpg,Musics/Music4.wav,Image
5006,computer,43,2.769168428,7,Post,Images/Image12.jpg,Musics/Music12.wav,Both
5006,computer,44,2.887767335,7,Post,Images/Image9.jpg,Musics/Music9.wav,Both
5006,computer,45,2.872361818,7,Post,Images/Image5.jpg,Musics/Music5.wav,Image
5006,computer,46,2.078232789,6,Post,Images/Image15.jpg,Musics/Music15.wav,Music
5006,computer,47,1.361264626,6,Post,Images/Image8.jpg,Musics/Music8.wav,Image
5006,computer,48,2.857428344,6,Post,Images/Image18.jpg,Musics/Music18.wav,Image
5006,computer,49,1.700801353,7,Post,Images/Image3.jpg,Musics/Music3.wav,Image
5006,computer,50,1.05119975,3,Post,Images/Image5.jpg,Musics/Music5.wav,Music
5006,computer,51,1.242511002,9,Post,Images/Image2.jpg,Musics/Music2.wav,Both
5006,computer,52,1.902981713,7,Post,Images/Image12.jpg,Musics/Music12.wav,Image
5006,computer,53,1.632905765,3,Post,Images/Image8.jpg,Musics/Music8.wav,Music
5007,computer,0,3.306886859,2,Pre,Images/Image9.jpg,Musics/Music9.wav,Image
5007,computer,1,1.611780195,6,Pre,Images/Image8.jpg,Musics/Music8.wav,Music
5007,computer,2,1.081253364,8,Pre,Images/Image4.jpg,Musics/Music4.wav,Image
5007,computer,3,0.757451027,7,Pre,Images/Image15.jpg,Musics/Music15.wav,Image
5007,computer,4,1.362799071,4,Pre,Images/Image3.jpg,Musics/Music3.wav,Both
5007,computer,5,0.725979673,2,Pre,Images/Image9.jpg,Musics/Music9.wav,Both
5007,computer,6,2.162341546,1,Pre,Images/Image5.jpg,Musics/Music5.wav,Both
5007,computer,7,0.797172623,6,Pre,Images/Image13.jpg,Musics/Music13.wav,Music
5007,computer,8,0.595660208,3,Pre,Images/Image11.jpg,Musics/Music11.wav,Music
5007,computer,9,0.72233276,6,Pre,Images/Image3.jpg,Musics/Music3.wav,Image
5007,computer,10,0.890471492,7,Pre,Images/Image6.jpg,Musics/Music6.wav,Image
5007,computer,11,0.865567918,6,Pre,Images/Image13.jpg,Musics/Music13.wav,Both
5007,computer,12,1.091741947,7,Pre,Images/Image10.jpg,Musics/Music10.wav,Music
5007,computer,13,0.846627911,6,Pre,Images/Image4.jpg,Musics/Music4.wav,Music
5007,computer,14,1.28850016,1,Pre,Images/Image11.jpg,Musics/Music11.wav,Image
5007,computer,15,0.727330439,6,Pre,Images/Image18.jpg,Musics/Music18.wav,Image
5007,computer,16,0.755042727,9,Pre,Images/Image12.jpg,Musics/Music12.wav,Image
5007,computer,17,1.006594814,8,Pre,Images/Image16.jpg,Musics/Music16.wav,Image
5007,computer,18,0.69482715,6,Pre,Images/Image6.jpg,Musics/Music6.wav,Music
5007,computer,19,0.821990941,8,Pre,Images/Image12.jpg,Musics/Music12.wav,Both
5007,computer,20,0.871072499,6,Pre,Images/Image7.jpg,Musics/Music7.wav,Image
5007,computer,21,0.89351273,6,Pre,Images/Image5.jpg,Musics/Music5.wav,Image
5007,computer,22,1.292766314,4,Pre,Images/Image3.jpg,Musics/Music3.wav,Music
5007,computer,23,0.94493753,8,Pre,Images/Image2.jpg,Musics/Music2.wav,Both
5007,computer,24,1.830507996,2,Pre,Images/Image8.jpg,Musics/Music8.wav,Image
5007,computer,25,0.774004268,6,Pre,Images/Image16.jpg,Musics/Music16.wav,Music
5007,computer,26,1.190146317,3,Pre,Images/Image1.jpg,Musics/Music1.wav,Image
5007,computer,27,1.28321096,7,Pre,Images/Image17.jpg,Musics/Music17.wav,Music
5007,computer,28,1.122561108,3,Pre,Images/Image1.jpg,Musics/Music1.wav,Music
5007,computer,29,1.331304572,6,Pre,Images/Image14.jpg,Musics/Music14.wav,Music
5007,computer,30,0.907596757,1,Pre,Images/Image5.jpg,Musics/Music5.wav,Music
5007,computer,31,1.190897019,6,Pre,Images/Image18.jpg,Musics/Music18.wav,Both
5007,computer,32,0.880999618,3,Pre,Images/Image14.jpg,Musics/Music14.wav,Both
5007,computer,33,0.876014863,3,Pre,Images/Image6.jpg,Musics/Music6.wav,Both
5007,computer,34,0.974128037,2,Pre,Images/Image1.jpg,Musics/Music1.wav,Both
5007,computer,35,1.451434797,7,Pre,Images/Image2.jpg,Musics/Music2.wav,Music
5007,computer,36,0.587981542,8,Pre,Images/Image7.jpg,Musics/Music7.wav,Both
5007,computer,37,2.964640995,4,Pre,Images/Image9.jpg,Musics/Music9.wav,Music
5007,computer,38,0.697208513,7,Pre,Images/Image15.jpg,Musics/Music15.wav,Music
5007,computer,39,0.832030488,3,Pre,Images/Image10.jpg,Musics/Music10.wav,Image
5007,computer,40,0.970737103,8,Pre,Images/Image16.jpg,Musics/Music16.wav,Both
5007,computer,41,1.29129343,6,Pre,Images/Image10.jpg,Musics/Music10.wav,Both
5007,computer,42,0.743610891,2,Pre,Images/Image14.jpg,Musics/Music14.wav,Image
5007,computer,43,1.729152383,7,Pre,Images/Image7.jpg,Musics/Music7.wav,Music
5007,computer,44,1.038244276,7,Pre,Images/Image12.jpg,Musics/Music12.wav,Music
5007,computer,45,0.752994161,3,Pre,Images/Image17.jpg,Musics/Music17.wav,Both
5007,computer,46,0.686835045,7,Pre,Images/Image4.jpg,Musics/Music4.wav,Both
5007,computer,47,2.624516604,3,Pre,Images/Image8.jpg,Musics/Music8.wav,Both
5007,computer,48,0.5897813,2,Pre,Images/Image17.jpg,Musics/Music17.wav,Image
5007,computer,49,0.864873127,3,Pre,Images/Image13.jpg,Musics/Music13.wav,Image
5007,computer,50,0.737872691,7,Pre,Images/Image2.jpg,Musics/Music2.wav,Image
5007,computer,51,1.219023978,3,Pre,Images/Image11.jpg,Musics/Music11.wav,Both
5007,computer,52,1.677548436,2,Pre,Images/Image18.jpg,Musics/Music18.wav,Music
5007,computer,53,1.78490735,4,Pre,Images/Image15.jpg,Musics/Music15.wav,Both
5007,computer,0,8.733354273,7,Post,Images/Image18.jpg,Musics/Music18.wav,Image
5007,computer,1,1.761006996,3,Post,Images/Image5.jpg,Musics/Music5.wav,Image
5007,computer,2,2.529121091,6,Post,Images/Image17.jpg,Musics/Music17.wav,Music
5007,computer,3,1.690403164,4,Post,Images/Image9.jpg,Musics/Music9.wav,Both
5007,computer,4,1.956320081,7,Post,Images/Image7.jpg,Musics/Music7.wav,Both
5007,computer,5,0.997423111,6,Post,Images/Image10.jpg,Musics/Music10.wav,Image
5007,computer,6,1.745578737,2,Post,Images/Image13.jpg,Musics/Music13.wav,Image
5007,computer,7,1.772221131,7,Post,Images/Image1.jpg,Musics/Music1.wav,Music
5007,computer,8,2.528975447,4,Post,Images/Image17.jpg,Musics/Music17.wav,Both
5007,computer,9,2.912656803,8,Post,Images/Image2.jpg,Musics/Music2.wav,Both
5007,computer,10,4.146605208,3,Post,Images/Image15.jpg,Musics/Music15.wav,Music
5007,computer,11,3.678348526,7,Post,Images/Image13.jpg,Musics/Music13.wav,Music
5007,computer,12,6.061145944,8,Post,Images/Image6.jpg,Musics/Music6.wav,Both
5007,computer,13,4.693647292,3,Post,Images/Image9.jpg,Musics/Music9.wav,Image
5007,computer,14,2.813320261,2,Post,Images/Image17.jpg,Musics/Music17.wav,Image
5007,computer,15,1.997370358,8,Post,Images/Image3.jpg,Musics/Music3.wav,Image
5007,computer,16,2.280010724,5,Post,Images/Image8.jpg,Musics/Music8.wav,Both
5007,computer,17,2.397870183,7,Post,Images/Image16.jpg,Musics/Music16.wav,Both
5007,computer,18,1.719305849,6,Post,Images/Image14.jpg,Musics/Music14.wav,Music
5007,computer,19,2.049263561,2,Post,Images/Image11.jpg,Musics/Music11.wav,Image
5007,computer,20,1.086323856,2,Post,Images/Image1.jpg,Musics/Music1.wav,Image
5007,computer,21,1.237478695,1,Post,Images/Image5.jpg,Musics/Music5.wav,Music
5007,computer,22,2.060717174,6,Post,Images/Image4.jpg,Musics/Music4.wav,Image
5007,computer,23,2.538333344,3,Post,Images/Image11.jpg,Musics/Music11.wav,Music
5007,computer,24,5.715658935,7,Post,Images/Image6.jpg,Musics/Music6.wav,Music
5007,computer,25,1.089726801,6,Post,Images/Image4.jpg,Musics/Music4.wav,Music
5007,computer,26,1.568335733,2,Post,Images/Image15.jpg,Musics/Music15.wav,Both
5007,computer,27,1.358087321,7,Post,Images/Image7.jpg,Musics/Music7.wav,Image
5007,computer,28,5.09989735,6,Post,Images/Image8.jpg,Musics/Music8.wav,Image
5007,computer,29,1.45863263,5,Post,Images/Image1.jpg,Musics/Music1.wav,Both
5007,computer,30,2.280012657,2,Post,Images/Image14.jpg,Musics/Music14.wav,Image
5007,computer,31,1.130602246,2,Post,Images/Image8.jpg,Musics/Music8.wav,Music
5007,computer,32,4.597887274,7,Post,Images/Image7.jpg,Musics/Music7.wav,Music
5007,computer,33,1.335858994,8,Post,Images/Image18.jpg,Musics/Music18.wav,Both
5007,computer,34,1.421782856,7,Post,Images/Image10.jpg,Musics/Music10.wav,Music
5007,computer,35,1.585639511,8,Post,Images/Image12.jpg,Musics/Music12.wav,Both
5007,computer,36,3.057422596,6,Post,Images/Image16.jpg,Musics/Music16.wav,Music
5007,computer,37,1.363491826,7,Post,Images/Image3.jpg,Musics/Music3.wav,Both
5007,computer,38,2.538387775,7,Post,Images/Image2.jpg,Musics/Music2.wav,Image
5007,computer,39,5.632819095,8,Post,Images/Image12.jpg,Musics/Music12.wav,Music
5007,computer,40,0.827067677,7,Post,Images/Image18.jpg,Musics/Music18.wav,Music
5007,computer,41,1.533293813,4,Post,Images/Image3.jpg,Musics/Music3.wav,Music
5007,computer,42,1.681511343,4,Post,Images/Image11.jpg,Musics/Music11.wav,Both
5007,computer,43,1.301631512,3,Post,Images/Image16.jpg,Musics/Music16.wav,Image
5007,computer,44,2.361092399,6,Post,Images/Image10.jpg,Musics/Music10.wav,Both
5007,computer,45,0.606349181,6,Post,Images/Image9.jpg,Musics/Music9.wav,Music
5007,computer,46,1.649018945,7,Post,Images/Image2.jpg,Musics/Music2.wav,Music
5007,computer,47,1.641347654,1,Post,Images/Image5.jpg,Musics/Music5.wav,Both
5007,computer,48,2.451858412,3,Post,Images/Image6.jpg,Musics/Music6.wav,Image
5007,computer,49,0.958687005,6,Post,Images/Image12.jpg,Musics/Music12.wav,Image
5007,computer,50,1.071526712,4,Post,Images/Image14.jpg,Musics/Music14.wav,Both
5007,computer,51,0.955545618,6,Post,Images/Image4.jpg,Musics/Music4.wav,Both
5007,computer,52,1.023591646,3,Post,Images/Image15.jpg,Musics/Music15.wav,Image
5007,computer,53,0.804300634,5,Post,Images/Image13.jpg,Musics/Music13.wav,Both
5008,computer,0,1.38512292,4,Pre,Images/Image10.jpg,Musics/Music10.wav,Music
5008,computer,1,2.197655979,7,Pre,Images/Image1.jpg,Musics/Music1.wav,Both
5008,computer,2,1.925627269,8,Pre,Images/Image14.jpg,Musics/Music14.wav,Both
5008,computer,3,3.256874888,5,Pre,Images/Image17.jpg,Musics/Music17.wav,Music
5008,computer,4,1.033783845,4,Pre,Images/Image17.jpg,Musics/Music17.wav,Both
5008,computer,5,0.912007264,3,Pre,Images/Image11.jpg,Musics/Music11.wav,Image
5008,computer,6,2.230874014,6,Pre,Images/Image3.jpg,Musics/Music3.wav,Music
5008,computer,7,1.854207688,6,Pre,Images/Image6.jpg,Musics/Music6.wav,Image
5008,computer,8,0.79980597,8,Pre,Images/Image14.jpg,Musics/Music14.wav,Image
5008,computer,9,0.970700369,5,Pre,Images/Image8.jpg,Musics/Music8.wav,Image
5008,computer,10,0.882323499,7,Pre,Images/Image16.jpg,Musics/Music16.wav,Image
5008,computer,11,1.036736708,9,Pre,Images/Image5.jpg,Musics/Music5.wav,Both
5008,computer,12,0.839993106,5,Pre,Images/Image16.jpg,Musics/Music16.wav,Music
5008,computer,13,0.983513875,7,Pre,Images/Image1.jpg,Musics/Music1.wav,Music
5008,computer,14,0.611739782,5,Pre,Images/Image7.jpg,Musics/Music7.wav,Image
5008,computer,15,0.984281253,6,Pre,Images/Image14.jpg,Musics/Music14.wav,Music
5008,computer,16,1.493906398,3,Pre,Images/Image15.jpg,Musics/Music15.wav,Both
5008,computer,17,1.450458449,2,Pre,Images/Image4.jpg,Musics/Music4.wav,Music
5008,computer,18,1.057010171,4,Pre,Images/Image8.jpg,Musics/Music8.wav,Music
5008,computer,19,1.017715709,6,Pre,Images/Image2.jpg,Musics/Music2.wav,Image
5008,computer,20,0.856278526,9,Pre,Images/Image5.jpg,Musics/Music5.wav,Image
5008,computer,21,0.596579215,1,Pre,Images/Image18.jpg,Musics/Music18.wav,Music
5008,computer,22,0.854510958,3,Pre,Images/Image12.jpg,Musics/Music12.wav,Image
5008,computer,23,0.788369045,4,Pre,Images/Image15.jpg,Musics/Music15.wav,Music
5008,computer,24,0.69600794,3,Pre,Images/Image11.jpg,Musics/Music11.wav,Both
5008,computer,25,1.644552039,3,Pre,Images/Image9.jpg,Musics/Music9.wav,Music
5008,computer,26,0.895910959,5,Pre,Images/Image1.jpg,Musics/Music1.wav,Image
5008,computer,27,1.044424251,2,Pre,Images/Image10.jpg,Musics/Music10.wav,Both
5008,computer,28,1.215142508,3,Pre,Images/Image9.jpg,Musics/Music9.wav,Image
5008,computer,29,1.198055633,2,Pre,Images/Image11.jpg,Musics/Music11.wav,Music
5008,computer,30,1.106413374,2,Pre,Images/Image6.jpg,Musics/Music6.wav,Music
5008,computer,31,1.598628632,7,Pre,Images/Image2.jpg,Musics/Music2.wav,Both
5008,computer,32,0.807515593,1,Pre,Images/Image18.jpg,Musics/Music18.wav,Both
5008,computer,33,1.358520445,7,Pre,Images/Image2.jpg,Musics/Music2.wav,Music
5008,computer,34,0.870382468,6,Pre,Images/Image6.jpg,Musics/Music6.wav,Both
5008,computer,35,1.082045017,2,Pre,Images/Image4.jpg,Musics/Music4.wav,Both
5008,computer,36,0.908690888,2,Pre,Images/Image18.jpg,Musics/Music18.wav,Image
5008,computer,37,0.825500766,4,Pre,Images/Image17.jpg,Musics/Music17.wav,Image
5008,computer,38,1.134856699,1,Pre,Images/Image13.jpg,Musics/Music13.wav,Music
5008,computer,39,0.805111937,5,Pre,Images/Image12.jpg,Musics/Music12.wav,Music
5008,computer,40,0.933187898,7,Pre,Images/Image7.jpg,Musics/Music7.wav,Music
5008,computer,41,0.870535492,6,Pre,Images/Image8.jpg,Musics/Music8.wav,Both
5008,computer,42,0.84655985,3,Pre,Images/Image16.jpg,Musics/Music16.wav,Both
5008,computer,43,0.570708594,1,Pre,Images/Image13.jpg,Musics/Music13.wav,Both
5008,computer,44,1.210656554,2,Pre,Images/Image4.jpg,Musics/Music4.wav,Image
5008,computer,45,0.966370578,6,Pre,Images/Image12.jpg,Musics/Music12.wav,Both
5008,computer,46,2.419915475,4,Pre,Images/Image9.jpg,Musics/Music9.wav,Both
5008,computer,47,1.004453482,7,Pre,Images/Image3.jpg,Musics/Music3.wav,Image
5008,computer,48,0.535958952,7,Pre,Images/Image3.jpg,Musics/Music3.wav,Both
5008,computer,49,2.231478526,3,Pre,Images/Image15.jpg,Musics/Music15.wav,Image
5008,computer,50,6.441715967,3,Pre,Images/Image13.jpg,Musics/Music13.wav,Image
5008,computer,51,0.884810951,5,Pre,Images/Image7.jpg,Musics/Music7.wav,Both
5008,computer,52,1.775773747,2,Pre,Images/Image10.jpg,Musics/Music10.wav,Image
5008,computer,53,1.837806274,9,Pre,Images/Image5.jpg,Musics/Music5.wav,Music
5008,computer,0,1.719249744,6,Post,Images/Image14.jpg,Musics/Music14.wav,Music
5008,computer,1,0.965957414,8,Post,Images/Image2.jpg,Musics/Music2.wav,Image
5008,computer,2,0.960143286,8,Post,Images/Image2.jpg,Musics/Music2.wav,Music
5008,computer,3,0.884511634,2,Post,Images/Image11.jpg,Musics/Music11.wav,Music
5008,computer,4,2.285747487,6,Post,Images/Image17.jpg,Musics/Music17.wav,Music
5008,computer,5,1.243601147,1,Post,Images/Image13.jpg,Musics/Music13.wav,Image
5008,computer,6,1.15186892,7,Post,Images/Image16.jpg,Musics/Music16.wav,Image
5008,computer,7,0.798709908,2,Post,Images/Image4.jpg,Musics/Music4.wav,Both
5008,computer,8,1.110763036,3,Post,Images/Image10.jpg,Musics/Music10.wav,Music
5008,computer,9,0.946009619,7,Post,Images/Image3.jpg,Musics/Music3.wav,Both
5008,computer,10,0.940792167,7,Post,Images/Image16.jpg,Musics/Music16.wav,Music
5008,computer,11,0.739562847,4,Post,Images/Image9.jpg,Musics/Music9.wav,Both
5008,computer,12,0.789793694,6,Post,Images/Image7.jpg,Musics/Music7.wav,Image
5008,computer,13,1.495529447,2,Post,Images/Image10.jpg,Musics/Music10.wav,Image
5008,computer,14,0.889496476,4,Post,Images/Image6.jpg,Musics/Music6.wav,Music
5008,computer,15,0.93103177,7,Post,Images/Image1.jpg,Musics/Music1.wav,Music
5008,computer,16,1.389829657,2,Post,Images/Image4.jpg,Musics/Music4.wav,Image
5008,computer,17,1.21778952,7,Post,Images/Image12.jpg,Musics/Music12.wav,Music
5008,computer,18,1.276636103,4,Post,Images/Image18.jpg,Musics/Music18.wav,Music
5008,computer,19,1.115127284,4,Post,Images/Image15.jpg,Musics/Music15.wav,Music
5008,computer,20,0.897715834,6,Post,Images/Image16.jpg,Musics/Music16.wav,Both
5008,computer,21,0.979457397,4,Post,Images/Image15.jpg,Musics/Music15.wav,Both
5008,computer,22,1.786574672,4,Post,Images/Image17.jpg,Musics/Music17.wav,Image
5008,computer,23,2.419120165,4,Post,Images/Image7.jpg,Musics/Music7.wav,Music
5008,computer,24,1.664861778,5,Post,Images/Image6.jpg,Musics/Music6.wav,Both
5008,computer,25,0.818241532,2,Post,Images/Image13.jpg,Musics/Music13.wav,Both
5008,computer,26,0.978619834,4,Post,Images/Image17.jpg,Musics/Music17.wav,Both
5008,computer,27,1.198980241,7,Post,Images/Image3.jpg,Musics/Music3.wav,Music
5008,computer,28,1.077218058,2,Post,Images/Image11.jpg,Musics/Music11.wav,Both
5008,computer,29,1.236265778,7,Post,Images/Image2.jpg,Musics/Music2.wav,Both
5008,computer,30,0.836611824,7,Post,Images/Image8.jpg,Musics/Music8.wav,Both
5008,computer,31,0.975624749,2,Post,Images/Image18.jpg,Musics/Music18.wav,Image
5008,computer,32,1.061259759,2,Post,Images/Image11.jpg,Musics/Music11.wav,Image
5008,computer,33,1.365301784,3,Post,Images/Image9.jpg,Musics/Music9.wav,Music
5008,computer,34,0.873685459,8,Post,Images/Image3.jpg,Musics/Music3.wav,Image
5008,computer,35,1.168382057,3,Post,Images/Image9.jpg,Musics/Music9.wav,Image
5008,computer,36,0.870044868,9,Post,Images/Image5.jpg,Musics/Music5.wav,Image
5008,computer,37,0.794389122,2,Post,Images/Image4.jpg,Musics/Music4.wav,Music
5008,computer,38,0.80258186,3,Post,Images/Image8.jpg,Musics/Music8.wav,Music
5008,computer,39,0.843448115,3,Post,Images/Image8.jpg,Musics/Music8.wav,Image
5008,computer,40,0.898782404,5,Post,Images/Image1.jpg,Musics/Music1.wav,Image
5008,computer,41,1.122374249,7,Post,Images/Image12.jpg,Musics/Music12.wav,Both
5008,computer,42,0.816271097,9,Post,Images/Image5.jpg,Musics/Music5.wav,Music
5008,computer,43,0.834992511,6,Post,Images/Image14.jpg,Musics/Music14.wav,Image
5008,computer,44,0.694935831,2,Post,Images/Image15.jpg,Musics/Music15.wav,Image
5008,computer,45,0.785803654,1,Post,Images/Image13.jpg,Musics/Music13.wav,Music
5008,computer,46,0.951687057,9,Post,Images/Image5.jpg,Musics/Music5.wav,Both
5008,computer,47,2.116151041,3,Post,Images/Image6.jpg,Musics/Music6.wav,Image
5008,computer,48,0.799064816,3,Post,Images/Image7.jpg,Musics/Music7.wav,Both
5008,computer,49,0.646262099,5,Post,Images/Image1.jpg,Musics/Music1.wav,Both
5008,computer,50,0.977603874,1,Post,Images/Image18.jpg,Musics/Music18.wav,Both
5008,computer,51,1.658307043,3,Post,Images/Image12.jpg,Musics/Music12.wav,Image
5008,computer,52,2.078873442,5,Post,Images/Image14.jpg,Musics/Music14.wav,Both
5008,computer,53,1.311526767,2,Post,Images/Image10.jpg,Musics/Music10.wav,Both
5009,computer,0,2.581566159,5,Pre,Images/Image4.jpg,Musics/Music4.wav,Image
5009,computer,1,1.465173083,3,Pre,Images/Image3.jpg,Musics/Music3.wav,Image
5009,computer,2,2.771523439,6,Pre,Images/Image6.jpg,Musics/Music6.wav,Music
5009,computer,3,1.90913581,5,Pre,Images/Image7.jpg,Musics/Music7.wav,Both
5009,computer,4,2.362038827,6,Pre,Images/Image2.jpg,Musics/Music2.wav,Image
5009,computer,5,1.775994477,7,Pre,Images/Image13.jpg,Musics/Music13.wav,Music
5009,computer,6,1.208089045,4,Pre,Images/Image8.jpg,Musics/Music8.wav,Music
5009,computer,7,1.015735945,3,Pre,Images/Image18.jpg,Musics/Music18.wav,Image
5009,computer,8,0.771682145,2,Pre,Images/Image3.jpg,Musics/Music3.wav,Music
5009,computer,9,1.414644666,6,Pre,Images/Image1.jpg,Musics/Music1.wav,Both
5009,computer,10,0.888741124,5,Pre,Images/Image14.jpg,Musics/Music14.wav,Music
5009,computer,11,1.076816185,6,Pre,Images/Image12.jpg,Musics/Music12.wav,Music
5009,computer,12,1.281850228,4,Pre,Images/Image1.jpg,Musics/Music1.wav,Image
5009,computer,13,3.424001087,4,Pre,Images/Image2.jpg,Musics/Music2.wav,Music
5009,computer,14,3.229323898,6,Pre,Images/Image17.jpg,Musics/Music17.wav,Image
5009,computer,15,1.177710388,7,Pre,Images/Image8.jpg,Musics/Music8.wav,Image
5009,computer,16,1.003317639,6,Pre,Images/Image10.jpg,Musics/Music10.wav,Image
5009,computer,17,2.565273173,7,Pre,Images/Image15.jpg,Musics/Music15.wav,Music
5009,computer,18,1.625965676,4,Pre,Images/Image7.jpg,Musics/Music7.wav,Image
5009,computer,19,1.922790499,7,Pre,Images/Image14.jpg,Musics/Music14.wav,Both
5009,computer,20,0.991938854,4,Pre,Images/Image6.jpg,Musics/Music6.wav,Both
5009,computer,21,1.263843324,7,Pre,Images/Image11.jpg,Musics/Music11.wav,Music
5009,computer,22,0.986643946,4,Pre,Images/Image17.jpg,Musics/Music17.wav,Both
5009,computer,23,1.018560046,5,Pre,Images/Image4.jpg,Musics/Music4.wav,Music
5009,computer,24,2.260011533,6,Pre,Images/Image16.jpg,Musics/Music16.wav,Image
5009,computer,25,2.094476816,4,Pre,Images/Image6.jpg,Musics/Music6.wav,Image
5009,computer,26,1.496622122,3,Pre,Images/Image1.jpg,Musics/Music1.wav,Music
5009,computer,27,1.669818248,6,Pre,Images/Image9.jpg,Musics/Music9.wav,Both
5009,computer,28,1.617812738,4,Pre,Images/Image16.jpg,Musics/Music16.wav,Both
5009,computer,29,1.353872739,7,Pre,Images/Image9.jpg,Musics/Music9.wav,Music
5009,computer,30,1.18086861,4,Pre,Images/Image14.jpg,Musics/Music14.wav,Image
5009,computer,31,1.565764635,6,Pre,Images/Image12.jpg,Musics/Music12.wav,Both
5009,computer,32,1.406093478,4,Pre,Images/Image13.jpg,Musics/Music13.wav,Both
5009,computer,33,1.264038342,3,Pre,Images/Image5.jpg,Musics/Music5.wav,Image
5009,computer,34,1.264475528,4,Pre,Images/Image13.jpg,Musics/Music13.wav,Image
5009,computer,35,0.983203495,5,Pre,Images/Image4.jpg,Musics/Music4.wav,Both
5009,computer,36,1.882745553,1,Pre,Images/Image5.jpg,Musics/Music5.wav,Both
5009,computer,37,1.497991179,6,Pre,Images/Image16.jpg,Musics/Music16.wav,Music
5009,computer,38,0.836718378,5,Pre,Images/Image2.jpg,Musics/Music2.wav,Both
5009,computer,39,1.128288917,6,Pre,Images/Image12.jpg,Musics/Music12.wav,Image
5009,computer,40,1.1162807,1,Pre,Images/Image5.jpg,Musics/Music5.wav,Music
5009,computer,41,0.95315462,4,Pre,Images/Image7.jpg,Musics/Music7.wav,Music
5009,computer,42,1.129452658,6,Pre,Images/Image11.jpg,Musics/Music11.wav,Image
5009,computer,43,1.962242816,5,Pre,Images/Image17.jpg,Musics/Music17.wav,Music
5009,computer,44,1.277074097,4,Pre,Images/Image18.jpg,Musics/Music18.wav,Both
5009,computer,45,1.103428816,6,Pre,Images/Image9.jpg,Musics/Music9.wav,Image
5009,computer,46,1.116586282,5,Pre,Images/Image15.jpg,Musics/Music15.wav,Both
5009,computer,47,1.009317628,6,Pre,Images/Image10.jpg,Musics/Music10.wav,Music
5009,computer,48,0.872767949,5,Pre,Images/Image8.jpg,Musics/Music8.wav,Both
5009,computer,49,1.70027267,5,Pre,Images/Image10.jpg,Musics/Music10.wav,Both
5009,computer,50,1.289888966,7,Pre,Images/Image11.jpg,Musics/Music11.wav,Both
5009,computer,51,1.928735437,5,Pre,Images/Image18.jpg,Musics/Music18.wav,Music
5009,computer,52,2.221225071,6,Pre,Images/Image15.jpg,Musics/Music15.wav,Image
5009,computer,53,1.117326913,4,Pre,Images/Image3.jpg,Musics/Music3.wav,Both
5009,computer,0,2.37776104,4,Post,Images/Image2.jpg,Musics/Music2.wav,Music
5009,computer,1,2.160731367,4,Post,Images/Image6.jpg,Musics/Music6.wav,Both
5009,computer,2,1.475841113,4,Post,Images/Image13.jpg,Musics/Music13.wav,Image
5009,computer,3,1.301038268,6,Post,Images/Image4.jpg,Musics/Music4.wav,Both
5009,computer,4,1.155349139,7,Post,Images/Image8.jpg,Musics/Music8.wav,Image
5009,computer,5,0.930899598,6,Post,Images/Image9.jpg,Musics/Music9.wav,Both
5009,computer,6,1.623980225,7,Post,Images/Image11.jpg,Musics/Music11.wav,Music
5009,computer,7,0.923700541,8,Post,Images/Image11.jpg,Musics/Music11.wav,Image
5009,computer,8,2.028984951,6,Post,Images/Image8.jpg,Musics/Music8.wav,Both
5009,computer,9,2.30603215,1,Post,Images/Image5.jpg,Musics/Music5.wav,Both
5009,computer,10,1.167108053,4,Post,Images/Image1.jpg,Musics/Music1.wav,Image
5009,computer,11,1.31823964,5,Post,Images/Image10.jpg,Musics/Music10.wav,Both
5009,computer,12,1.309327041,6,Post,Images/Image10.jpg,Musics/Music10.wav,Music
5009,computer,13,1.994370743,4,Post,Images/Image3.jpg,Musics/Music3.wav,Music
5009,computer,14,1.194720484,6,Post,Images/Image14.jpg,Musics/Music14.wav,Image
5009,computer,15,1.151934126,6,Post,Images/Image15.jpg,Musics/Music15.wav,Music
5009,computer,16,1.466195111,7,Post,Images/Image14.jpg,Musics/Music14.wav,Both
5009,computer,17,0.81495865,5,Post,Images/Image13.jpg,Musics/Music13.wav,Both
5009,computer,18,1.65992076,6,Post,Images/Image14.jpg,Musics/Music14.wav,Music
5009,computer,19,0.838815371,4,Post,Images/Image6.jpg,Musics/Music6.wav,Image
5009,computer,20,1.035303013,6,Post,Images/Image4.jpg,Musics/Music4.wav,Music
5009,computer,21,0.734828754,5,Post,Images/Image18.jpg,Musics/Music18.wav,Both
5009,computer,22,1.61196925,6,Post,Images/Image1.jpg,Musics/Music1.wav,Both
5009,computer,23,1.71226213,6,Post,Images/Image8.jpg,Musics/Music8.wav,Music
5009,computer,24,1.482411537,5,Post,Images/Image2.jpg,Musics/Music2.wav,Image
5009,computer,25,2.335234154,5,Post,Images/Image7.jpg,Musics/Music7.wav,Music
5009,computer,26,1.895470469,4,Post,Images/Image6.jpg,Musics/Music6.wav,Music
5009,computer,27,0.671007386,5,Post,Images/Image12.jpg,Musics/Music12.wav,Both
5009,computer,28,2.679061717,7,Post,Images/Image16.jpg,Musics/Music16.wav,Image
5009,computer,29,0.750383131,5,Post,Images/Image17.jpg,Musics/Music17.wav,Image
5009,computer,30,0.849307784,6,Post,Images/Image17.jpg,Musics/Music17.wav,Music
5009,computer,31,0.952817918,5,Post,Images/Image2.jpg,Musics/Music2.wav,Both
5009,computer,32,1.081077578,6,Post,Images/Image1.jpg,Musics/Music1.wav,Music
5009,computer,33,1.299885282,1,Post,Images/Image5.jpg,Musics/Music5.wav,Music
5009,computer,34,1.284597204,5,Post,Images/Image12.jpg,Musics/Music12.wav,Image
5009,computer,35,1.039269955,6,Post,Images/Image13.jpg,Musics/Music13.wav,Music
5009,computer,36,1.47256703,4,Post,Images/Image18.jpg,Musics/Music18.wav,Music
5009,computer,37,1.091185882,5,Post,Images/Image10.jpg,Musics/Music10.wav,Image
5009,computer,38,1.110896434,5,Post,Images/Image17.jpg,Musics/Music17.wav,Both
5009,computer,39,2.820465968,6,Post,Images/Image12.jpg,Musics/Music12.wav,Music
5009,computer,40,0.565605762,6,Post,Images/Image7.jpg,Musics/Music7.wav,Both
5009,computer,41,1.041600876,8,Post,Images/Image11.jpg,Musics/Music11.wav,Both
5009,computer,42,2.952283428,5,Post,Images/Image4.jpg,Musics/Music4.wav,Image
5009,computer,43,3.167583772,5,Post,Images/Image3.jpg,Musics/Music3.wav,Image
5009,computer,44,0.914955065,4,Post,Images/Image15.jpg,Musics/Music15.wav,Image
5009,computer,45,1.043305273,6,Post,Images/Image7.jpg,Musics/Music7.wav,Image
5009,computer,46,0.717974771,6,Post,Images/Image15.jpg,Musics/Music15.wav,Both
5009,computer,47,0.964416906,4,Post,Images/Image18.jpg,Musics/Music18.wav,Image
5009,computer,48,1.034715979,6,Post,Images/Image9.jpg,Musics/Music9.wav,Image
5009,computer,49,1.310643638,4,Post,Images/Image3.jpg,Musics/Music3.wav,Both
5009,computer,50,1.603641667,2,Post,Images/Image5.jpg,Musics/Music5.wav,Image
5009,computer,51,1.59930951,6,Post,Images/Image16.jpg,Musics/Music16.wav,Both
5009,computer,52,3.875156602,5,Post,Images/Image16.jpg,Musics/Music16.wav,Music
5009,computer,53,1.186429072,6,Post,Images/Image9.jpg,Musics/Music9.wav,Music
5010,computer,0,2.211449094,3,Pre,Images/Image5.jpg,Musics/Music5.wav,Image
5010,computer,1,2.527143681,7,Pre,Images/Image9.jpg,Musics/Music9.wav,Music
5010,computer,2,4.192756912,5,Pre,Images/Image4.jpg,Musics/Music4.wav,Both
5010,computer,3,0.869880471,7,Pre,Images/Image13.jpg,Musics/Music13.wav,Music
5010,computer,4,1.690468976,7,Pre,Images/Image2.jpg,Musics/Music2.wav,Both
5010,computer,5,0.67486564,3,Pre,Images/Image17.jpg,Musics/Music17.wav,Image
5010,computer,6,0.643286555,5,Pre,Images/Image4.jpg,Musics/Music4.wav,Music
5010,computer,7,3.672011983,8,Pre,Images/Image16.jpg,Musics/Music16.wav,Both
5010,computer,8,1.210559152,4,Pre,Images/Image7.jpg,Musics/Music7.wav,Image
5010,computer,9,0.562600603,3,Pre,Images/Image5.jpg,Musics/Music5.wav,Music
5010,computer,10,0.828181261,7,Pre,Images/Image10.jpg,Musics/Music10.wav,Both
5010,computer,11,0.853602153,7,Pre,Images/Image12.jpg,Musics/Music12.wav,Music
5010,computer,12,0.55245085,5,Pre,Images/Image3.jpg,Musics/Music3.wav,Image
5010,computer,13,3.390802999,6,Pre,Images/Image6.jpg,Musics/Music6.wav,Music
5010,computer,14,0.890608275,7,Pre,Images/Image3.jpg,Musics/Music3.wav,Music
5010,computer,15,1.910559515,2,Pre,Images/Image5.jpg,Musics/Music5.wav,Both
5010,computer,16,2.115214476,4,Pre,Images/Image15.jpg,Musics/Music15.wav,Image
5010,computer,17,2.667924681,6,Pre,Images/Image12.jpg,Musics/Music12.wav,Image
5010,computer,18,3.119760823,4,Pre,Images/Image8.jpg,Musics/Music8.wav,Music
5010,computer,19,3.243076725,3,Pre,Images/Image14.jpg,Musics/Music14.wav,Both
5010,computer,20,0.991306474,3,Pre,Images/Image9.jpg,Musics/Music9.wav,Image
5010,computer,21,2.698127139,2,Pre,Images/Image11.jpg,Musics/Music11.wav,Music
5010,computer,22,0.714298458,3,Pre,Images/Image14.jpg,Musics/Music14.wav,Image
5010,computer,23,1.202081426,5,Pre,Images/Image6.jpg,Musics/Music6.wav,Both
5010,computer,24,1.004316804,3,Pre,Images/Image10.jpg,Musics/Music10.wav,Music
5010,computer,25,1.981344246,2,Pre,Images/Image1.jpg,Musics/Music1.wav,Image
5010,computer,26,0.997252918,3,Pre,Images/Image11.jpg,Musics/Music11.wav,Image
5010,computer,27,3.799994861,2,Pre,Images/Image7.jpg,Musics/Music7.wav,Music
5010,computer,28,1.371949287,4,Pre,Images/Image15.jpg,Musics/Music15.wav,Both
5010,computer,29,1.391388647,2,Pre,Images/Image14.jpg,Musics/Music14.wav,Music
5010,computer,30,0.773817672,3,Pre,Images/Image6.jpg,Musics/Music6.wav,Image
5010,computer,31,2.422572954,3,Pre,Images/Image1.jpg,Musics/Music1.wav,Both
5010,computer,32,0.666733444,4,Pre,Images/Image9.jpg,Musics/Music9.wav,Both
5010,computer,33,0.665255241,7,Pre,Images/Image3.jpg,Musics/Music3.wav,Both
5010,computer,34,0.919617273,3,Pre,Images/Image13.jpg,Musics/Music13.wav,Image
5010,computer,35,2.006422302,4,Pre,Images/Image10.jpg,Musics/Music10.wav,Image
5010,computer,36,0.814557403,5,Pre,Images/Image18.jpg,Musics/Music18.wav,Image
5010,computer,37,0.964138489,2,Pre,Images/Image17.jpg,Musics/Music17.wav,Both
5010,computer,38,1.414152773,4,Pre,Images/Image13.jpg,Musics/Music13.wav,Both
5010,computer,39,1.312871259,6,Pre,Images/Image2.jpg,Musics/Music2.wav,Music
5010,computer,40,0.741261653,2,Pre,Images/Image18.jpg,Musics/Music18.wav,Both
5010,computer,41,1.064148834,3,Pre,Images/Image15.jpg,Musics/Music15.wav,Music
5010,computer,42,0.638886239,1,Pre,Images/Image4.jpg,Musics/Music4.wav,Image
5010,computer,43,0.669492291,5,Pre,Images/Image17.jpg,Musics/Music17.wav,Music
5010,computer,44,1.142466296,3,Pre,Images/Image16.jpg,Musics/Music16.wav,Music
5010,computer,45,2.483613968,4,Pre,Images/Image8.jpg,Musics/Music8.wav,Both
5010,computer,46,3.555677478,5,Pre,Images/Image7.jpg,Musics/Music7.wav,Both
5010,computer,47,1.027807429,8,Pre,Images/Image16.jpg,Musics/Music16.wav,Image
5010,computer,48,2.848516539,4,Pre,Images/Image11.jpg,Musics/Music11.wav,Both
5010,computer,49,0.636966433,2,Pre,Images/Image12.jpg,Musics/Music12.wav,Both
5010,computer,50,0.969659771,3,Pre,Images/Image2.jpg,Musics/Music2.wav,Image
5010,computer,51,0.991884537,7,Pre,Images/Image18.jpg,Musics/Music18.wav,Music
5010,computer,52,1.657416643,6,Pre,Images/Image8.jpg,Musics/Music8.wav,Image
5010,computer,53,3.038433297,4,Pre,Images/Image1.jpg,Musics/Music1.wav,Music
5010,computer,0,1.958754651,3,Post,Images/Image1.jpg,Musics/Music1.wav,Both
5010,computer,1,3.282341562,5,Post,Images/Image18.jpg,Musics/Music18.wav,Image
5010,computer,2,2.385528454,3,Post,Images/Image12.jpg,Musics/Music12.wav,Music
5010,computer,3,3.688136755,6,Post,Images/Image6.jpg,Musics/Music6.wav,Music
5010,computer,4,1.55017831,5,Post,Images/Image6.jpg,Musics/Music6.wav,Both
5010,computer,5,1.439121721,4,Post,Images/Image8.jpg,Musics/Music8.wav,Both
5010,computer,6,1.736695201,2,Post,Images/Image17.jpg,Musics/Music17.wav,Image
5010,computer,7,4.418777068,3,Post,Images/Image13.jpg,Musics/Music13.wav,Both
5010,computer,8,1.062620776,2,Post,Images/Image10.jpg,Musics/Music10.wav,Both
5010,computer,9,3.044503374,4,Post,Images/Image14.jpg,Musics/Music14.wav,Both
5010,computer,10,2.798900958,4,Post,Images/Image9.jpg,Musics/Music9.wav,Both
5010,computer,11,3.54484489,4,Post,Images/Image17.jpg,Musics/Music17.wav,Both
5010,computer,12,5.02721569,2,Post,Images/Image17.jpg,Musics/Music17.wav,Music
5010,computer,13,1.89696607,1,Post,Images/Image4.jpg,Musics/Music4.wav,Both
5010,computer,14,2.114168066,7,Post,Images/Image2.jpg,Musics/Music2.wav,Music
5010,computer,15,7.546296863,6,Post,Images/Image3.jpg,Musics/Music3.wav,Both
5010,computer,16,1.884739776,2,Post,Images/Image13.jpg,Musics/Music13.wav,Music
5010,computer,17,1.2702299,3,Post,Images/Image15.jpg,Musics/Music15.wav,Image
5010,computer,18,1.903505256,4,Post,Images/Image15.jpg,Musics/Music15.wav,Both
5010,computer,19,3.247175664,3,Post,Images/Image5.jpg,Musics/Music5.wav,Both
5010,computer,20,2.876629093,6,Post,Images/Image3.jpg,Musics/Music3.wav,Music
5010,computer,21,1.315621482,8,Post,Images/Image16.jpg,Musics/Music16.wav,Image
5010,computer,22,1.410560163,2,Post,Images/Image12.jpg,Musics/Music12.wav,Both
5010,computer,23,1.640194685,2,Post,Images/Image11.jpg,Musics/Music11.wav,Both
5010,computer,24,1.116350678,4,Post,Images/Image3.jpg,Musics/Music3.wav,Image
5010,computer,25,0.966591013,4,Post,Images/Image16.jpg,Musics/Music16.wav,Music
5010,computer,26,1.700121175,6,Post,Images/Image9.jpg,Musics/Music9.wav,Music
5010,computer,27,1.318081254,1,Post,Images/Image11.jpg,Musics/Music11.wav,Music
5010,computer,28,1.247209736,5,Post,Images/Image12.jpg,Musics/Music12.wav,Image
5010,computer,29,1.423946611,2,Post,Images/Image4.jpg,Musics/Music4.wav,Image
5010,computer,30,1.519162238,6,Post,Images/Image7.jpg,Musics/Music7.wav,Both
5010,computer,31,0.998660231,3,Post,Images/Image13.jpg,Musics/Music13.wav,Image
5010,computer,32,1.218858032,8,Post,Images/Image18.jpg,Musics/Music18.wav,Music
5010,computer,33,2.839308326,2,Post,Images/Image1.jpg,Musics/Music1.wav,Image
5010,computer,34,3.244045622,5,Post,Images/Image2.jpg,Musics/Music2.wav,Image
5010,computer,35,1.238723829,6,Post,Images/Image15.jpg,Musics/Music15.wav,Music
5010,computer,36,2.890496182,4,Post,Images/Image16.jpg,Musics/Music16.wav,Both
5010,computer,37,0.955876733,1,Post,Images/Image9.jpg,Musics/Music9.wav,Image
5010,computer,38,1.50716733,6,Post,Images/Image8.jpg,Musics/Music8.wav,Music
5010,computer,39,1.485308001,5,Post,Images/Image1.jpg,Musics/Music1.wav,Music
5010,computer,40,1.280680071,6,Post,Images/Image14.jpg,Musics/Music14.wav,Music
5010,computer,41,1.670192493,2,Post,Images/Image18.jpg,Musics/Music18.wav,Both
5010,computer,42,1.625621352,3,Post,Images/Image2.jpg,Musics/Music2.wav,Both
5010,computer,43,1.229292563,2,Post,Images/Image14.jpg,Musics/Music14.wav,Image
5010,computer,44,0.945467711,2,Post,Images/Image8.jpg,Musics/Music8.wav,Image
5010,computer,45,0.729039474,1,Post,Images/Image5.jpg,Musics/Music5.wav,Music
5010,computer,46,0.981711325,7,Post,Images/Image5.jpg,Musics/Music5.wav,Image
5010,computer,47,1.244088596,3,Post,Images/Image6.jpg,Musics/Music6.wav,Image
5010,computer,48,1.503028908,4,Post,Images/Image10.jpg,Musics/Music10.wav,Image
5010,computer,49,1.698469634,5,Post,Images/Image7.jpg,Musics/Music7.wav,Music
5010,computer,50,1.180977091,5,Post,Images/Image4.jpg,Musics/Music4.wav,Music
5010,computer,51,1.002292578,5,Post,Images/Image7.jpg,Musics/Music7.wav,Image
5010,computer,52,1.963948868,3,Post,Images/Image11.jpg,Musics/Music11.wav,Image
5010,computer,53,2.349514376,2,Post,Images/Image10.jpg,Musics/Music10.wav,Music
5011,computer,0,18.76751655,4,Pre,Images/Image13.jpg,Musics/Music13.wav,Both
5011,computer,1,6.792257731,7,Pre,Images/Image7.jpg,Musics/Music7.wav,Both
5011,computer,2,3.321494658,4,Pre,Images/Image6.jpg,Musics/Music6.wav,Both
5011,computer,3,1.824193751,7,Pre,Images/Image16.jpg,Musics/Music16.wav,Both
5011,computer,4,1.085189457,7,Pre,Images/Image9.jpg,Musics/Music9.wav,Music
5011,computer,5,0.984975969,4,Pre,Images/Image3.jpg,Musics/Music3.wav,Music
5011,computer,6,3.436838555,5,Pre,Images/Image15.jpg,Musics/Music15.wav,Image
5011,computer,7,0.78863151,6,Pre,Images/Image14.jpg,Musics/Music14.wav,Image
5011,computer,8,1.366822351,4,Pre,Images/Image2.jpg,Musics/Music2.wav,Both
5011,computer,9,0.963083975,7,Pre,Images/Image18.jpg,Musics/Music18.wav,Music
5011,computer,10,2.141145497,6,Pre,Images/Image12.jpg,Musics/Music12.wav,Image
5011,computer,11,1.856395137,6,Pre,Images/Image14.jpg,Musics/Music14.wav,Both
5011,computer,12,0.805852564,7,Pre,Images/Image4.jpg,Musics/Music4.wav,Both
5011,computer,13,2.032184778,4,Pre,Images/Image17.jpg,Musics/Music17.wav,Image
5011,computer,14,1.508311476,7,Pre,Images/Image16.jpg,Musics/Music16.wav,Music
5011,computer,15,2.784541506,5,Pre,Images/Image11.jpg,Musics/Music11.wav,Image
5011,computer,16,0.815621021,4,Pre,Images/Image18.jpg,Musics/Music18.wav,Image
5011,computer,17,1.409645282,7,Pre,Images/Image2.jpg,Musics/Music2.wav,Music
5011,computer,18,0.909599922,6,Pre,Images/Image10.jpg,Musics/Music10.wav,Music
5011,computer,19,1.015484919,4,Pre,Images/Image4.jpg,Musics/Music4.wav,Music
5011,computer,20,0.808530607,7,Pre,Images/Image1.jpg,Musics/Music1.wav,Image
5011,computer,21,1.894708262,5,Pre,Images/Image17.jpg,Musics/Music17.wav,Music
5011,computer,22,0.860049184,7,Pre,Images/Image4.jpg,Musics/Music4.wav,Image
5011,computer,23,1.636190915,6,Pre,Images/Image8.jpg,Musics/Music8.wav,Image
5011,computer,24,1.620186214,7,Pre,Images/Image3.jpg,Musics/Music3.wav,Image
5011,computer,25,0.764354691,6,Pre,Images/Image12.jpg,Musics/Music12.wav,Both
5011,computer,26,0.906777437,8,Pre,Images/Image15.jpg,Musics/Music15.wav,Music
5011,computer,27,2.022364172,6,Pre,Images/Image8.jpg,Musics/Music8.wav,Music
5011,computer,28,0.76248984,3,Pre,Images/Image17.jpg,Musics/Music17.wav,Both
5011,computer,29,3.312759087,5,Pre,Images/Image10.jpg,Musics/Music10.wav,Both
5011,computer,30,1.13559947,7,Pre,Images/Image5.jpg,Musics/Music5.wav,Both
5011,computer,31,0.991372408,6,Pre,Images/Image3.jpg,Musics/Music3.wav,Both
5011,computer,32,0.925320981,4,Pre,Images/Image11.jpg,Musics/Music11.wav,Both
5011,computer,33,0.834138601,4,Pre,Images/Image13.jpg,Musics/Music13.wav,Music
5011,computer,34,0.698853834,7,Pre,Images/Image8.jpg,Musics/Music8.wav,Both
5011,computer,35,0.546640447,7,Pre,Images/Image16.jpg,Musics/Music16.wav,Image
5011,computer,36,1.840456921,6,Pre,Images/Image7.jpg,Musics/Music7.wav,Music
5011,computer,37,0.898740814,7,Pre,Images/Image7.jpg,Musics/Music7.wav,Image
5011,computer,38,0.745035641,5,Pre,Images/Image6.jpg,Musics/Music6.wav,Music
5011,computer,39,0.674714855,5,Pre,Images/Image12.jpg,Musics/Music12.wav,Music
5011,computer,40,1.358830562,7,Pre,Images/Image1.jpg,Musics/Music1.wav,Music
5011,computer,41,2.233152202,7,Pre,Images/Image13.jpg,Musics/Music13.wav,Image
5011,computer,42,1.048689813,6,Pre,Images/Image5.jpg,Musics/Music5.wav,Music
5011,computer,43,2.442730292,6,Pre,Images/Image1.jpg,Musics/Music1.wav,Both
5011,computer,44,0.941351769,5,Pre,Images/Image2.jpg,Musics/Music2.wav,Image
5011,computer,45,0.653819263,6,Pre,Images/Image10.jpg,Musics/Music10.wav,Image
5011,computer,46,0.634936035,4,Pre,Images/Image5.jpg,Musics/Music5.wav,Image
5011,computer,47,1.251294053,6,Pre,Images/Image18.jpg,Musics/Music18.wav,Both
5011,computer,48,0.720578179,6,Pre,Images/Image9.jpg,Musics/Music9.wav,Image
5011,computer,49,0.650848451,7,Pre,Images/Image9.jpg,Musics/Music9.wav,Both
5011,computer,50,1.394205788,5,Pre,Images/Image11.jpg,Musics/Music11.wav,Music
5011,computer,51,0.686242366,6,Pre,Images/Image14.jpg,Musics/Music14.wav,Music
5011,computer,52,0.757773892,4,Pre,Images/Image6.jpg,Musics/Music6.wav,Image
5011,computer,53,0.642128105,5,Pre,Images/Image15.jpg,Musics/Music15.wav,Both
5011,computer,0,1.410033231,5,Post,Images/Image8.jpg,Musics/Music8.wav,Image
5011,computer,1,1.246246962,4,Post,Images/Image1.jpg,Musics/Music1.wav,Image
5011,computer,2,1.734645006,6,Post,Images/Image2.jpg,Musics/Music2.wav,Both
5011,computer,3,1.849102451,4,Post,Images/Image11.jpg,Musics/Music11.wav,Both
5011,computer,4,1.176538509,5,Post,Images/Image3.jpg,Musics/Music3.wav,Image
5011,computer,5,0.657018079,4,Post,Images/Image11.jpg,Musics/Music11.wav,Image
5011,computer,6,3.172770844,6,Post,Images/Image16.jpg,Musics/Music16.wav,Both
5011,computer,7,1.045359964,6,Post,Images/Image7.jpg,Musics/Music7.wav,Music
5011,computer,8,0.99528377,7,Post,Images/Image18.jpg,Musics/Music18.wav,Music
5011,computer,9,2.636407459,5,Post,Images/Image4.jpg,Musics/Music4.wav,Music
5011,computer,10,2.446695019,5,Post,Images/Image9.jpg,Musics/Music9.wav,Image
5011,computer,11,1.561938508,7,Post,Images/Image16.jpg,Musics/Music16.wav,Music
5011,computer,12,1.063075156,6,Post,Images/Image7.jpg,Musics/Music7.wav,Both
5011,computer,13,2.779597144,4,Post,Images/Image13.jpg,Musics/Music13.wav,Image
5011,computer,14,2.143720127,5,Post,Images/Image5.jpg,Musics/Music5.wav,Image
5011,computer,15,1.876867523,6,Post,Images/Image18.jpg,Musics/Music18.wav,Image
5011,computer,16,1.184398848,4,Post,Images/Image10.jpg,Musics/Music10.wav,Image
5011,computer,17,2.659187394,6,Post,Images/Image3.jpg,Musics/Music3.wav,Both
5011,computer,18,1.791348692,6,Post,Images/Image2.jpg,Musics/Music2.wav,Music
5011,computer,19,2.772018251,5,Post,Images/Image4.jpg,Musics/Music4.wav,Both
5011,computer,20,0.858830542,6,Post,Images/Image7.jpg,Musics/Music7.wav,Image
5011,computer,21,0.689784073,5,Post,Images/Image2.jpg,Musics/Music2.wav,Image
5011,computer,22,0.845315828,3,Post,Images/Image15.jpg,Musics/Music15.wav,Both
5011,computer,23,2.467324707,4,Post,Images/Image10.jpg,Musics/Music10.wav,Music
5011,computer,24,1.549471764,4,Post,Images/Image15.jpg,Musics/Music15.wav,Image
5011,computer,25,1.540598096,5,Post,Images/Image6.jpg,Musics/Music6.wav,Image
5011,computer,26,1.28537555,5,Post,Images/Image16.jpg,Musics/Music16.wav,Image
5011,computer,27,1.026071387,6,Post,Images/Image9.jpg,Musics/Music9.wav,Music
5011,computer,28,5.316579647,5,Post,Images/Image6.jpg,Musics/Music6.wav,Both
5011,computer,29,1.266282236,4,Post,Images/Image1.jpg,Musics/Music1.wav,Music
5011,computer,30,1.396631296,5,Post,Images/Image12.jpg,Musics/Music12.wav,Image
5011,computer,31,1.037856882,6,Post,Images/Image14.jpg,Musics/Music14.wav,Both
5011,computer,32,1.104372605,4,Post,Images/Image17.jpg,Musics/Music17.wav,Image
5011,computer,33,3.302672286,4,Post,Images/Image3.jpg,Musics/Music3.wav,Music
5011,computer,34,0.794994099,5,Post,Images/Image12.jpg,Musics/Music12.wav,Music
5011,computer,35,0.710604721,6,Post,Images/Image14.jpg,Musics/Music14.wav,Image
5011,computer,36,2.986604929,4,Post,Images/Image13.jpg,Musics/Music13.wav,Both
5011,computer,37,0.68600634,5,Post,Images/Image15.jpg,Musics/Music15.wav,Music
5011,computer,38,7.385256435,7,Post,Images/Image8.jpg,Musics/Music8.wav,Music
5011,computer,39,1.007822853,6,Post,Images/Image18.jpg,Musics/Music18.wav,Both
5011,computer,40,1.43721998,6,Post,Images/Image8.jpg,Musics/Music8.wav,Both
5011,computer,41,0.999334076,3,Post,Images/Image17.jpg,Musics/Music17.wav,Both
5011,computer,42,1.5919911,4,Post,Images/Image13.jpg,Musics/Music13.wav,Music
5011,computer,43,1.180253332,5,Post,Images/Image12.jpg,Musics/Music12.wav,Both
5011,computer,44,0.827501738,4,Post,Images/Image17.jpg,Musics/Music17.wav,Music
5011,computer,45,2.099011644,5,Post,Images/Image10.jpg,Musics/Music10.wav,Both
5011,computer,46,1.237401724,5,Post,Images/Image9.jpg,Musics/Music9.wav,Both
5011,computer,47,2.224063487,4,Post,Images/Image1.jpg,Musics/Music1.wav,Both
5011,computer,48,0.807252275,5,Post,Images/Image14.jpg,Musics/Music14.wav,Music
5011,computer,49,0.954094699,6,Post,Images/Image5.jpg,Musics/Music5.wav,Both
5011,computer,50,0.889609549,6,Post,Images/Image4.jpg,Musics/Music4.wav,Image
5011,computer,51,2.05833801,4,Post,Images/Image6.jpg,Musics/Music6.wav,Music
5011,computer,52,1.85984763,3,Post,Images/Image11.jpg,Musics/Music11.wav,Music
5011,computer,53,1.628775391,7,Post,Images/Image5.jpg,Musics/Music5.wav,Music
5012,computer,0,1.5718555,3,Pre,Images/Image9.jpg,Musics/Music9.wav,Both
5012,computer,1,2.8604203,4,Pre,Images/Image8.jpg,Musics/Music8.wav,Music
5012,computer,2,0.632456,6,Pre,Images/Image3.jpg,Musics/Music3.wav,Image
5012,computer,3,2.1246641,6,Pre,Images/Image18.jpg,Musics/Music18.wav,Both
5012,computer,4,2.0229944,3,Pre,Images/Image4.jpg,Musics/Music4.wav,Music
5012,computer,5,2.4832064,7,Pre,Images/Image16.jpg,Musics/Music16.wav,Music
5012,computer,6,3.8717485,4,Pre,Images/Image15.jpg,Musics/Music15.wav,Both
5012,computer,7,50.1935079,6,Pre,Images/Image17.jpg,Musics/Music17.wav,Music
5012,computer,8,5.3290076,4,Pre,Images/Image7.jpg,Musics/Music7.wav,Image
5012,computer,9,0.8414681,5,Pre,Images/Image9.jpg,Musics/Music9.wav,Music
5012,computer,10,1.1289015,7,Pre,Images/Image7.jpg,Musics/Music7.wav,Both
5012,computer,11,0.9397245,8,Pre,Images/Image7.jpg,Musics/Music7.wav,Music
5012,computer,12,0.8768496,3,Pre,Images/Image13.jpg,Musics/Music13.wav,Both
5012,computer,13,1.5214015,5,Pre,Images/Image1.jpg,Musics/Music1.wav,Music
5012,computer,14,1.4131263,6,Pre,Images/Image15.jpg,Musics/Music15.wav,Music
5012,computer,15,1.0747343,6,Pre,Images/Image11.jpg,Musics/Music11.wav,Music
5012,computer,16,0.9279017,6,Pre,Images/Image6.jpg,Musics/Music6.wav,Both
5012,computer,17,0.6825911,7,Pre,Images/Image12.jpg,Musics/Music12.wav,Both
5012,computer,18,0.640489,3,Pre,Images/Image1.jpg,Musics/Music1.wav,Image
5012,computer,19,1.5010327,6,Pre,Images/Image10.jpg,Musics/Music10.wav,Music
5012,computer,20,0.7668497,3,Pre,Images/Image14.jpg,Musics/Music14.wav,Music
5012,computer,21,0.6969084,6,Pre,Images/Image13.jpg,Musics/Music13.wav,Music
5012,computer,22,0.5805652,8,Pre,Images/Image2.jpg,Musics/Music2.wav,Both
5012,computer,23,0.7062972,6,Pre,Images/Image2.jpg,Musics/Music2.wav,Image
5012,computer,24,0.5874319,7,Pre,Images/Image18.jpg,Musics/Music18.wav,Music
5012,computer,25,0.5486636,6,Pre,Images/Image4.jpg,Musics/Music4.wav,Both
5012,computer,26,0.8611226,7,Pre,Images/Image2.jpg,Musics/Music2.wav,Music
5012,computer,27,0.5094177,8,Pre,Images/Image16.jpg,Musics/Music16.wav,Image
5012,computer,28,0.7213206,1,Pre,Images/Image8.jpg,Musics/Music8.wav,Both
5012,computer,29,0.4797821,3,Pre,Images/Image14.jpg,Musics/Music14.wav,Image
5012,computer,30,0.7349775,3,Pre,Images/Image11.jpg,Musics/Music11.wav,Image
5012,computer,31,0.6739565,1,Pre,Images/Image14.jpg,Musics/Music14.wav,Both
5012,computer,32,0.6928028,4,Pre,Images/Image8.jpg,Musics/Music8.wav,Image
5012,computer,33,0.758162,4,Pre,Images/Image5.jpg,Musics/Music5.wav,Music
5012,computer,34,0.8195687,8,Pre,Images/Image6.jpg,Musics/Music6.wav,Music
5012,computer,35,1.5801576,6,Pre,Images/Image3.jpg,Musics/Music3.wav,Music
5012,computer,36,1.6140306,6,Pre,Images/Image18.jpg,Musics/Music18.wav,Image
5012,computer,37,0.8526367,1,Pre,Images/Image6.jpg,Musics/Music6.wav,Image
5012,computer,38,0.6039236,6,Pre,Images/Image5.jpg,Musics/Music5.wav,Image
5012,computer,39,0.6588283,3,Pre,Images/Image17.jpg,Musics/Music17.wav,Both
5012,computer,40,0.8645533,7,Pre,Images/Image10.jpg,Musics/Music10.wav,Image
5012,computer,41,0.7071531,3,Pre,Images/Image5.jpg,Musics/Music5.wav,Both
5012,computer,42,0.9645757,9,Pre,Images/Image12.jpg,Musics/Music12.wav,Image
5012,computer,43,1.1654223,6,Pre,Images/Image1.jpg,Musics/Music1.wav,Both
5012,computer,44,0.5558241,8,Pre,Images/Image16.jpg,Musics/Music16.wav,Both
5012,computer,45,0.8905041,3,Pre,Images/Image17.jpg,Musics/Music17.wav,Image
5012,computer,46,0.590164,3,Pre,Images/Image4.jpg,Musics/Music4.wav,Image
5012,computer,47,0.7853772,5,Pre,Images/Image15.jpg,Musics/Music15.wav,Image
5012,computer,48,0.5456957,9,Pre,Images/Image12.jpg,Musics/Music12.wav,Music
5012,computer,49,0.4960926,4,Pre,Images/Image9.jpg,Musics/Music9.wav,Image
5012,computer,50,0.5324848,6,Pre,Images/Image13.jpg,Musics/Music13.wav,Image
5012,computer,51,1.7217962,6,Pre,Images/Image10.jpg,Musics/Music10.wav,Both
5012,computer,52,0.8405644,7,Pre,Images/Image3.jpg,Musics/Music3.wav,Both
5012,computer,53,0.5129481,8,Pre,Images/Image11.jpg,Musics/Music11.wav,Both
5012,computer,0,0.9935559,9,Post,Images/Image2.jpg,Musics/Music2.wav,Image
5012,computer,1,0.951441,3,Post,Images/Image14.jpg,Musics/Music14.wav,Both
5012,computer,2,0.9141069,7,Post,Images/Image10.jpg,Musics/Music10.wav,Both
5012,computer,3,1.1046366,3,Post,Images/Image11.jpg,Musics/Music11.wav,Image
5012,computer,4,0.9136168,7,Post,Images/Image10.jpg,Musics/Music10.wav,Image
5012,computer,5,1.471332,7,Post,Images/Image3.jpg,Musics/Music3.wav,Image
5012,computer,6,0.8674448,4,Post,Images/Image15.jpg,Musics/Music15.wav,Both
5012,computer,7,1.4062233,5,Post,Images/Image1.jpg,Musics/Music1.wav,Both
5012,computer,8,1.6010165,6,Post,Images/Image2.jpg,Musics/Music2.wav,Music
5012,computer,9,1.1409105,2,Post,Images/Image9.jpg,Musics/Music9.wav,Image
5012,computer,10,0.8202987,1,Post,Images/Image6.jpg,Musics/Music6.wav,Image
5012,computer,11,1.1142222,8,Post,Images/Image12.jpg,Musics/Music12.wav,Music
5012,computer,12,1.0255718,7,Post,Images/Image13.jpg,Musics/Music13.wav,Music
5012,computer,13,0.7294406,3,Post,Images/Image8.jpg,Musics/Music8.wav,Image
5012,computer,14,0.8330895,6,Post,Images/Image11.jpg,Musics/Music11.wav,Both
5012,computer,15,1.4880341,6,Post,Images/Image3.jpg,Musics/Music3.wav,Music
5012,computer,16,1.3904665,3,Post,Images/Image8.jpg,Musics/Music8.wav,Both
5012,computer,17,1.7827724,6,Post,Images/Image1.jpg,Musics/Music1.wav,Music
5012,computer,18,1.0403332,7,Post,Images/Image17.jpg,Musics/Music17.wav,Music
5012,computer,19,1.028578,7,Post,Images/Image9.jpg,Musics/Music9.wav,Music
5012,computer,20,0.7041614,9,Post,Images/Image18.jpg,Musics/Music18.wav,Image
5012,computer,21,1.1907519,2,Post,Images/Image5.jpg,Musics/Music5.wav,Music
5012,computer,22,1.0307082,4,Post,Images/Image1.jpg,Musics/Music1.wav,Image
5012,computer,23,1.5872552,6,Post,Images/Image4.jpg,Musics/Music4.wav,Music
5012,computer,24,0.925398,3,Post,Images/Image15.jpg,Musics/Music15.wav,Image
5012,computer,25,1.2709414,3,Post,Images/Image9.jpg,Musics/Music9.wav,Both
5012,computer,26,1.3534959,8,Post,Images/Image7.jpg,Musics/Music7.wav,Both
5012,computer,27,0.9126349,9,Post,Images/Image16.jpg,Musics/Music16.wav,Image
5012,computer,28,0.8918034,9,Post,Images/Image6.jpg,Musics/Music6.wav,Music
5012,computer,29,1.072042,7,Post,Images/Image10.jpg,Musics/Music10.wav,Music
5012,computer,30,0.8355464,1,Post,Images/Image4.jpg,Musics/Music4.wav,Image
5012,computer,31,1.007872,6,Post,Images/Image11.jpg,Musics/Music11.wav,Music
5012,computer,32,0.827386,2,Post,Images/Image17.jpg,Musics/Music17.wav,Image
5012,computer,33,0.6700953,4,Post,Images/Image4.jpg,Musics/Music4.wav,Both
5012,computer,34,0.8943027,9,Post,Images/Image7.jpg,Musics/Music7.wav,Music
5012,computer,35,0.7423912,6,Post,Images/Image8.jpg,Musics/Music8.wav,Music
5012,computer,36,1.7524049,5,Post,Images/Image3.jpg,Musics/Music3.wav,Both
5012,computer,37,0.6407618,1,Post,Images/Image5.jpg,Musics/Music5.wav,Both
5012,computer,38,0.974727,9,Post,Images/Image18.jpg,Musics/Music18.wav,Music
5012,computer,39,0.7248899,9,Post,Images/Image15.jpg,Musics/Music15.wav,Music
5012,computer,40,0.6649679,4,Post,Images/Image14.jpg,Musics/Music14.wav,Image
5012,computer,41,2.4403024,7,Post,Images/Image13.jpg,Musics/Music13.wav,Image
5012,computer,42,0.5659424,8,Post,Images/Image2.jpg,Musics/Music2.wav,Both
5012,computer,43,0.7105385,8,Post,Images/Image12.jpg,Musics/Music12.wav,Image
5012,computer,44,0.6174402,8,Post,Images/Image5.jpg,Musics/Music5.wav,Image
5012,computer,45,1.3705105,7,Post,Images/Image14.jpg,Musics/Music14.wav,Music
5012,computer,46,0.9649887,9,Post,Images/Image16.jpg,Musics/Music16.wav,Music
5012,computer,47,0.6715839,3,Post,Images/Image17.jpg,Musics/Music17.wav,Both
5012,computer,48,0.7937474,7,Post,Images/Image7.jpg,Musics/Music7.wav,Image
5012,computer,49,0.7402271,7,Post,Images/Image16.jpg,Musics/Music16.wav,Both
5012,computer,50,1.0625284,6,Post,Images/Image6.jpg,Musics/Music6.wav,Both
