"Prolific_ID","Participant.Device.Type","Trial.Number","Reaction.Time","Response","stimulus","modality"
4887,"computer","1",2597.36499993596,"2","foil.mp3","music"
4887,"computer","2",1980.28999997769,"8","Cut_jazz_7.mp3","music"
4887,"computer","3",1092.57999993861,"6","Classical_19.mp3","music"
4887,"computer","4",1124.5699999854,"9","Cut_jazz_14.mp3","music"
4887,"computer","5",1072.81499996316,"7","Classical_1.mp3","music"
4887,"computer","6",740.97000004258,"2","Classical_4.mp3","music"
4887,"computer","7",752.69999995362,"4","Cut_jazz_1.mp3","music"
4887,"computer","8",2211.3899999531,"4","Classical_2.mp3","music"
4887,"computer","9",2534.45999999531,"5","Cut_jazz_16.mp3","music"
4887,"computer","10",1315.47000003047,"6","Classical_7.mp3","music"
4887,"computer","11",1520.3249999322,"2","Classical_15.mp3","music"
4887,"computer","12",1400.95499996096,"2","Classical_6.mp3","music"
4887,"computer","13",3193.52000008803,"4","Classical_17.mp3","music"
4887,"computer","14",1148.42500002123,"7","Classical_8.mp3","music"
4887,"computer","15",2609.3450000044,"8","Classical_18.mp3","music"
4887,"computer","16",953.734999988228,"7","Cut_jazz_19.mp3","music"
4887,"computer","17",1313.35000006948,"5","Cut_jazz_5.mp3","music"
4887,"computer","18",988.344999961555,"3","Cut_jazz_10.mp3","music"
4887,"computer","19",774.794999975711,"6","Cut_jazz_2.mp3","music"
4754,"computer","1",2869.80000007153,"2","Cut_jazz_5.mp3","music"
4754,"computer","2",825.699999928474,"7","Classical_1.mp3","music"
4754,"computer","3",1070.79999995232,"7","Classical_2.mp3","music"
4754,"computer","4",1597.19999992847,"8","Cut_jazz_7.mp3","music"
4754,"computer","5",968.199999928474,"2","foil.mp3","music"
4754,"computer","6",593.799999952316,"1","Cut_jazz_1.mp3","music"
4754,"computer","7",873.5,"5","Classical_17.mp3","music"
4754,"computer","8",1474.79999995232,"5","Cut_jazz_14.mp3","music"
4754,"computer","9",2824.39999997616,"5","Classical_18.mp3","music"
4754,"computer","10",1461.89999997616,"3","Classical_4.mp3","music"
4754,"computer","11",627.299999952316,"2","Cut_jazz_16.mp3","music"
4754,"computer","12",445.899999976158,"9","Classical_19.mp3","music"
4754,"computer","13",1084.19999992847,"3","Cut_jazz_10.mp3","music"
4754,"computer","14",1632.19999992847,"6","Classical_6.mp3","music"
4754,"computer","15",1216,"5","Cut_jazz_19.mp3","music"
4754,"computer","16",996.899999976158,"6","Classical_8.mp3","music"
4754,"computer","17",958,"6","Cut_jazz_2.mp3","music"
4754,"computer","18",603.199999928474,"7","Classical_15.mp3","music"
4754,"computer","19",747.199999928474,"8","Classical_7.mp3","music"
4891,"computer","1",1898.69999998808,"2","foil.mp3","music"
4891,"computer","2",1806.19999998808,"2","Cut_jazz_19.mp3","music"
4891,"computer","3",874,"6","Classical_18.mp3","music"
4891,"computer","4",690.40000000596,"1","Classical_6.mp3","music"
4891,"computer","5",616.90000000596,"9","Cut_jazz_2.mp3","music"
4891,"computer","6",1421.5,"8","Cut_jazz_1.mp3","music"
4891,"computer","7",732.09999999404,"1","Cut_jazz_16.mp3","music"
4891,"computer","8",651.5,"1","Classical_2.mp3","music"
4891,"computer","9",1581.09999999404,"9","Classical_19.mp3","music"
4891,"computer","10",1367.30000001192,"9","Classical_7.mp3","music"
4891,"computer","11",1026.29999998212,"9","Cut_jazz_10.mp3","music"
4891,"computer","12",1398.20000001788,"1","Cut_jazz_14.mp3","music"
4891,"computer","13",2727.20000001788,"1","Classical_4.mp3","music"
4891,"computer","14",3541.20000001788,"1","Classical_1.mp3","music"
4891,"computer","15",1266.59999999404,"9","Cut_jazz_7.mp3","music"
4891,"computer","16",1163.29999998212,"1","Classical_15.mp3","music"
4891,"computer","17",1550.19999998808,"1","Classical_8.mp3","music"
4891,"computer","18",985.09999999404,"1","Classical_17.mp3","music"
4891,"computer","19",2179,"1","Cut_jazz_5.mp3","music"
4824,"computer","1",6113.79999995232,"2","Cut_jazz_16.mp3","music"
4824,"computer","2",2672.30000007153,"3","Cut_jazz_19.mp3","music"
4824,"computer","3",1092.79999995232,"5","Classical_1.mp3","music"
4824,"computer","4",2055.09999990463,"4","Classical_4.mp3","music"
4824,"computer","5",1077.89999997616,"6","Classical_19.mp3","music"
4824,"computer","6",735.5,"6","Cut_jazz_14.mp3","music"
4824,"computer","7",1386,"2","Cut_jazz_1.mp3","music"
4824,"computer","8",1124.60000002384,"2","Classical_15.mp3","music"
4824,"computer","9",756.299999952316,"1","Cut_jazz_2.mp3","music"
4824,"computer","10",2406.10000002384,"2","foil.mp3","music"
4824,"computer","11",1951.29999995232,"6","Classical_17.mp3","music"
4824,"computer","12",930.5,"2","Cut_jazz_10.mp3","music"
4824,"computer","13",1581.79999995232,"5","Cut_jazz_5.mp3","music"
4824,"computer","14",1684.89999997616,"4","Classical_8.mp3","music"
4824,"computer","15",962.100000023842,"3","Classical_6.mp3","music"
4824,"computer","16",850.399999976158,"4","Classical_18.mp3","music"
4824,"computer","17",790.200000047684,"7","Cut_jazz_7.mp3","music"
4824,"computer","18",1702.70000004768,"4","Classical_2.mp3","music"
4824,"computer","19",963.799999952316,"5","Classical_7.mp3","music"
4801,"computer","1",4703.90000009537,"4","Cut_jazz_16.mp3","music"
4801,"computer","2",839.600000143051,"1","Classical_2.mp3","music"
4801,"computer","3",1008.60000014305,"3","Cut_jazz_10.mp3","music"
4801,"computer","4",1971.90000009537,"6","Cut_jazz_7.mp3","music"
4801,"computer","5",711.399999856949,"7","Classical_17.mp3","music"
4801,"computer","6",982.699999809265,"8","Classical_7.mp3","music"
4801,"computer","7",997.899999856949,"4","Cut_jazz_19.mp3","music"
4801,"computer","8",1398.70000004768,"5","Classical_1.mp3","music"
4801,"computer","9",1486,"2","Classical_6.mp3","music"
4801,"computer","10",901.5,"9","Classical_18.mp3","music"
4801,"computer","11",856.5,"3","Classical_4.mp3","music"
4801,"computer","12",799.5,"7","Classical_19.mp3","music"
4801,"computer","13",1161.10000014305,"2","foil.mp3","music"
4801,"computer","14",3689.10000014305,"1","Cut_jazz_5.mp3","music"
4801,"computer","15",4816,"3","Classical_15.mp3","music"
4801,"computer","16",6328.70000004768,"7","Cut_jazz_2.mp3","music"
4801,"computer","17",1488.40000009537,"6","Cut_jazz_14.mp3","music"
4801,"computer","18",2222.09999990463,"8","Cut_jazz_1.mp3","music"
4801,"computer","19",2077.90000009537,"3","Classical_8.mp3","music"
4888,"computer","1",5304.5,"1","Classical_4.mp3","music"
4888,"computer","2",1052.90000009537,"5","Cut_jazz_19.mp3","music"
4888,"computer","3",1081.29999995232,"6","Classical_17.mp3","music"
4888,"computer","4",724.899999856949,"7","Classical_6.mp3","music"
4888,"computer","5",1010.29999995232,"8","Cut_jazz_2.mp3","music"
4888,"computer","6",1069.70000004768,"9","Cut_jazz_16.mp3","music"
4888,"computer","7",945.200000047684,"4","Cut_jazz_10.mp3","music"
4888,"computer","8",897.400000095367,"2","Cut_jazz_1.mp3","music"
4888,"computer","9",1202.5,"3","Classical_2.mp3","music"
4888,"computer","10",1165,"6","Classical_19.mp3","music"
4888,"computer","11",2948.79999995232,"2","foil.mp3","music"
4888,"computer","12",2833.69999980927,"6","Classical_18.mp3","music"
4888,"computer","13",2555.79999995232,"3","Classical_8.mp3","music"
4888,"computer","14",3552.60000014305,"3","Cut_jazz_5.mp3","music"
4888,"computer","15",7844.29999995232,"4","Cut_jazz_14.mp3","music"
4888,"computer","16",682.599999904633,"7","Classical_1.mp3","music"
4888,"computer","17",1045,"6","Classical_7.mp3","music"
4888,"computer","18",1751.39999985695,"3","Classical_15.mp3","music"
4888,"computer","19",11140.5999999046,"3","Cut_jazz_7.mp3","music"
4743,"computer","1",3231.59999990463,"4","Classical_7.mp3","music"
4743,"computer","2",999.200000047684,"5","Classical_2.mp3","music"
4743,"computer","3",415.099999904633,"5","Classical_19.mp3","music"
4743,"computer","4",458.5,"5","Classical_8.mp3","music"
4743,"computer","5",599.5,"5","Cut_jazz_1.mp3","music"
4743,"computer","6",589.200000047684,"5","Cut_jazz_7.mp3","music"
4743,"computer","7",406.599999904633,"5","foil.mp3","music"
4743,"computer","8",3958.29999995232,"5","Classical_18.mp3","music"
4743,"computer","9",1395.5,"5","Classical_17.mp3","music"
4743,"computer","10",1063.60000014305,"5","Classical_15.mp3","music"
4743,"computer","11",4797.09999990463,"5","Cut_jazz_5.mp3","music"
4743,"computer","12",1584,"5","Classical_1.mp3","music"
4743,"computer","13",3128.10000014305,"5","Classical_6.mp3","music"
4743,"computer","14",611.899999856949,"5","Cut_jazz_14.mp3","music"
4743,"computer","15",1082.59999990463,"5","Classical_4.mp3","music"
4743,"computer","16",457.100000143051,"5","Cut_jazz_19.mp3","music"
4743,"computer","17",1141.5,"5","Cut_jazz_10.mp3","music"
4743,"computer","18",462.599999904633,"5","Cut_jazz_16.mp3","music"
4743,"computer","19",505.400000095367,"5","Cut_jazz_2.mp3","music"
4854,"computer","1",5104,"9","Cut_jazz_2.mp3","music"
4854,"computer","2",2395.19999992847,"6","Cut_jazz_16.mp3","music"
4854,"computer","3",3601.5,"5","Classical_2.mp3","music"
4854,"computer","4",1987.70000004768,"8","Cut_jazz_14.mp3","music"
4854,"computer","5",2257.29999995232,"2","foil.mp3","music"
4854,"computer","6",4441.70000004768,"4","Cut_jazz_5.mp3","music"
4854,"computer","7",1288.09999990463,"9","Classical_7.mp3","music"
4854,"computer","8",1348.89999997616,"6","Cut_jazz_7.mp3","music"
4854,"computer","9",2011.5,"4","Classical_6.mp3","music"
4854,"computer","10",1146.79999995232,"8","Classical_17.mp3","music"
4854,"computer","11",1567.10000002384,"7","Classical_18.mp3","music"
4854,"computer","12",5527.39999997616,"7","Classical_8.mp3","music"
4854,"computer","13",3792.79999995232,"6","Classical_1.mp3","music"
4854,"computer","14",1023,"2","Cut_jazz_10.mp3","music"
4854,"computer","15",6696.10000002384,"3","Cut_jazz_1.mp3","music"
4854,"computer","16",3085.5,"5","Classical_15.mp3","music"
4854,"computer","17",2822,"4","Cut_jazz_19.mp3","music"
4854,"computer","18",3370.29999995232,"9","Classical_19.mp3","music"
4854,"computer","19",4940.60000002384,"5","Classical_4.mp3","music"
4843,"computer","1",5268,"5","Classical_17.mp3","music"
4843,"computer","2",843.700000000186,"9","Classical_8.mp3","music"
4843,"computer","3",488.200000000186,"8","Classical_7.mp3","music"
4843,"computer","4",1588.30000000075,"2","foil.mp3","music"
4843,"computer","5",975,"5","Cut_jazz_7.mp3","music"
4843,"computer","6",745.5,"8","Classical_18.mp3","music"
4843,"computer","7",909.400000000373,"3","Cut_jazz_16.mp3","music"
4843,"computer","8",457.400000000373,"2","Classical_4.mp3","music"
4843,"computer","9",704.099999999627,"5","Cut_jazz_19.mp3","music"
4843,"computer","10",901.5,"8","Classical_19.mp3","music"
4843,"computer","11",516.799999999814,"2","Cut_jazz_5.mp3","music"
4843,"computer","12",1267.79999999981,"1","Classical_6.mp3","music"
4843,"computer","13",984.700000000186,"4","Classical_1.mp3","music"
4843,"computer","14",1775,"4","Cut_jazz_10.mp3","music"
4843,"computer","15",1152.10000000056,"6","Classical_2.mp3","music"
4843,"computer","16",1685.70000000019,"3","Cut_jazz_1.mp3","music"
4843,"computer","17",493.899999999441,"5","Classical_15.mp3","music"
4843,"computer","18",619.200000000186,"5","Cut_jazz_14.mp3","music"
4843,"computer","19",730.600000000559,"3","Cut_jazz_2.mp3","music"
4821,"computer","1",4643.09999999404,"6","Classical_7.mp3","music"
4821,"computer","2",1572.29999998212,"2","Cut_jazz_7.mp3","music"
4821,"computer","3",475.5,"3","Cut_jazz_19.mp3","music"
4821,"computer","4",3051.30000001192,"7","Classical_17.mp3","music"
4821,"computer","5",1462.19999998808,"8","Classical_18.mp3","music"
4821,"computer","6",1013,"9","Classical_2.mp3","music"
4821,"computer","7",2190.39999997616,"8","Classical_15.mp3","music"
4821,"computer","8",1187.80000001192,"5","Classical_4.mp3","music"
4821,"computer","9",1049.5,"6","Cut_jazz_14.mp3","music"
4821,"computer","10",794.899999976158,"1","Cut_jazz_2.mp3","music"
4821,"computer","11",1823.69999998808,"6","Cut_jazz_1.mp3","music"
4821,"computer","12",1563.09999999404,"2","Cut_jazz_5.mp3","music"
4821,"computer","13",1098.69999998808,"9","Classical_1.mp3","music"
4821,"computer","14",1286.5,"9","Classical_19.mp3","music"
4821,"computer","15",2462.69999998808,"8","Classical_8.mp3","music"
4821,"computer","16",5346.59999999404,"5","Classical_6.mp3","music"
4821,"computer","17",1023.90000000596,"2","foil.mp3","music"
4821,"computer","18",5067.79999998212,"3","Cut_jazz_10.mp3","music"
4821,"computer","19",901.09999999404,"1","Cut_jazz_16.mp3","music"
4774,"computer","1",5666,"6","Classical_1.mp3","music"
4774,"computer","2",1627.20000004768,"5","Cut_jazz_19.mp3","music"
4774,"computer","3",932.600000023842,"5","Cut_jazz_5.mp3","music"
4774,"computer","4",945.600000023842,"8","Classical_19.mp3","music"
4774,"computer","5",3225.39999997616,"7","Classical_2.mp3","music"
4774,"computer","6",1067.40000009537,"6","Classical_15.mp3","music"
4774,"computer","7",1443.80000007153,"7","Classical_7.mp3","music"
4774,"computer","8",932,"5","Classical_4.mp3","music"
4774,"computer","9",2025.69999992847,"5","Classical_6.mp3","music"
4774,"computer","10",2913.80000007153,"2","foil.mp3","music"
4774,"computer","11",3543.20000004768,"5","Classical_17.mp3","music"
4774,"computer","12",1485.79999995232,"3","Cut_jazz_10.mp3","music"
4774,"computer","13",727.899999976158,"4","Classical_18.mp3","music"
4774,"computer","14",1283.29999995232,"5","Classical_8.mp3","music"
4774,"computer","15",1358.5,"5","Cut_jazz_1.mp3","music"
4774,"computer","16",1127.19999992847,"5","Cut_jazz_16.mp3","music"
4774,"computer","17",994.600000023842,"6","Cut_jazz_7.mp3","music"
4774,"computer","18",1351.10000002384,"6","Cut_jazz_14.mp3","music"
4774,"computer","19",1005.5,"5","Cut_jazz_2.mp3","music"
4873,"computer","1",2671.60000002384,"6","Classical_7.mp3","music"
4873,"computer","2",531.700000047684,"9","Cut_jazz_1.mp3","music"
4873,"computer","3",2066.80000007153,"7","Classical_2.mp3","music"
4873,"computer","4",60240.2000000477,"8","Classical_19.mp3","music"
4873,"computer","5",3392.29999995232,"3","Cut_jazz_10.mp3","music"
4873,"computer","6",683,"6","Classical_8.mp3","music"
4873,"computer","7",4543,"5","Classical_6.mp3","music"
4873,"computer","8",453.5,"1","Cut_jazz_5.mp3","music"
4873,"computer","9",1840.79999995232,"6","Cut_jazz_2.mp3","music"
4873,"computer","10",1775.20000004768,"5","Cut_jazz_19.mp3","music"
4873,"computer","11",907.5,"3","Classical_18.mp3","music"
4873,"computer","12",1473.89999997616,"6","Cut_jazz_16.mp3","music"
4873,"computer","13",1192.80000007153,"5","Classical_17.mp3","music"
4873,"computer","14",1366.60000002384,"6","Classical_4.mp3","music"
4873,"computer","15",2831,"6","Cut_jazz_14.mp3","music"
4873,"computer","16",10491.7000000477,"6","Classical_1.mp3","music"
4873,"computer","17",28376.7999999523,"5","Classical_15.mp3","music"
4873,"computer","18",1149.60000002384,"2","foil.mp3","music"
4873,"computer","19",64777.0999999046,"6","Cut_jazz_7.mp3","music"
4772,"computer","1",1853.19999980927,"8","Cut_jazz_14.mp3","music"
4772,"computer","2",1766.60000038147,"2","foil.mp3","music"
4772,"computer","3",1703,"3","Cut_jazz_5.mp3","music"
4772,"computer","4",1136.60000038147,"6","Classical_15.mp3","music"
4772,"computer","5",1007.4000005722,"3","Classical_2.mp3","music"
4772,"computer","6",3745.60000038147,"3","Classical_6.mp3","music"
4772,"computer","7",788.60000038147,"4","Classical_4.mp3","music"
4772,"computer","8",1234.19999980927,"6","Cut_jazz_19.mp3","music"
4772,"computer","9",1092.30000019073,"2","Cut_jazz_16.mp3","music"
4772,"computer","10",723.89999961853,"9","Classical_7.mp3","music"
4772,"computer","11",799.300000190735,"7","Cut_jazz_1.mp3","music"
4772,"computer","12",964.099999427795,"6","Cut_jazz_7.mp3","music"
4772,"computer","13",1164.69999980927,"9","Classical_19.mp3","music"
4772,"computer","14",983.400000572205,"8","Classical_8.mp3","music"
4772,"computer","15",813.5,"1","Cut_jazz_10.mp3","music"
4772,"computer","16",861.699999809265,"6","Classical_18.mp3","music"
4772,"computer","17",601.199999809265,"9","Cut_jazz_2.mp3","music"
4772,"computer","18",714,"4","Classical_1.mp3","music"
4772,"computer","19",1416,"3","Classical_17.mp3","music"
4832,"computer","1",3007.10000000894,"6","Classical_17.mp3","music"
4832,"computer","2",981.29999999702,"9","Classical_7.mp3","music"
4832,"computer","3",2993.5,"7","Classical_6.mp3","music"
4832,"computer","4",8750.39999999106,"1","foil.mp3","music"
4832,"computer","5",1513.29999999702,"1","Cut_jazz_16.mp3","music"
4832,"computer","6",2686.79999999702,"6","Cut_jazz_1.mp3","music"
4832,"computer","7",3145.59999999404,"4","Cut_jazz_14.mp3","music"
4832,"computer","8",1405.59999999404,"8","Cut_jazz_2.mp3","music"
4832,"computer","9",1505.40000000596,"7","Classical_4.mp3","music"
4832,"computer","10",1401.29999999702,"8","Cut_jazz_19.mp3","music"
4832,"computer","11",1250.39999999106,"2","Cut_jazz_10.mp3","music"
4832,"computer","12",1954.59999999404,"2","Cut_jazz_5.mp3","music"
4832,"computer","13",3633.89999999106,"9","Classical_2.mp3","music"
4832,"computer","14",2556.09999999404,"5","Classical_8.mp3","music"
4832,"computer","15",1344.40000000596,"5","Classical_18.mp3","music"
4832,"computer","16",1152.10000000894,"7","Cut_jazz_7.mp3","music"
4832,"computer","17",1326.5,"9","Classical_1.mp3","music"
4832,"computer","18",1473.79999999702,"6","Classical_19.mp3","music"
4832,"computer","19",2279.10000000894,"6","Classical_15.mp3","music"
4861,"computer","1",6676.80000019073,"6","Cut_jazz_5.mp3","music"
4861,"computer","2",3344.19999980927,"3","Cut_jazz_10.mp3","music"
4861,"computer","3",3501.2999997139,"6","Classical_2.mp3","music"
4861,"computer","4",2544,"6","Classical_8.mp3","music"
4861,"computer","5",909,"4","Cut_jazz_16.mp3","music"
4861,"computer","6",1010.40000009537,"7","Classical_19.mp3","music"
4861,"computer","7",1542.19999980927,"7","Classical_1.mp3","music"
4861,"computer","8",1333.90000009537,"6","Classical_6.mp3","music"
4861,"computer","9",3024.90000009537,"4","Classical_4.mp3","music"
4861,"computer","10",2610.80000019073,"6","Classical_7.mp3","music"
4861,"computer","11",681.60000038147,"5","Cut_jazz_2.mp3","music"
4861,"computer","12",3283.2000002861,"6","Classical_17.mp3","music"
4861,"computer","13",4422.09999990463,"6","Cut_jazz_19.mp3","music"
4861,"computer","14",1284.7000002861,"3","Cut_jazz_1.mp3","music"
4861,"computer","15",2698.5,"6","Classical_18.mp3","music"
4861,"computer","16",1968.90000009537,"5","Cut_jazz_7.mp3","music"
4861,"computer","17",6121.69999980927,"6","Classical_15.mp3","music"
4861,"computer","18",1837.19999980927,"2","foil.mp3","music"
4861,"computer","19",8625.69999980927,"6","Cut_jazz_14.mp3","music"
4769,"computer","1",2938.39999997616,"5","Cut_jazz_10.mp3","music"
4769,"computer","2",477.399999976158,"5","Cut_jazz_7.mp3","music"
4769,"computer","3",1156.70000004768,"5","Cut_jazz_19.mp3","music"
4769,"computer","4",3235.80000007153,"5","Classical_18.mp3","music"
4769,"computer","5",2513.70000004768,"5","Classical_6.mp3","music"
4769,"computer","6",1720,"5","Classical_19.mp3","music"
4769,"computer","7",1081.79999995232,"5","Cut_jazz_2.mp3","music"
4769,"computer","8",1427.60000002384,"5","Classical_1.mp3","music"
4769,"computer","9",1535.89999997616,"5","Classical_15.mp3","music"
4769,"computer","10",534.299999952316,"5","Cut_jazz_5.mp3","music"
4769,"computer","11",3849.60000002384,"5","Classical_7.mp3","music"
4769,"computer","12",1239.5,"2","foil.mp3","music"
4769,"computer","13",960.300000071526,"4","Classical_4.mp3","music"
4769,"computer","14",682.100000023842,"4","Cut_jazz_14.mp3","music"
4769,"computer","15",2154.79999995232,"4","Classical_2.mp3","music"
4769,"computer","16",2973.5,"4","Classical_17.mp3","music"
4769,"computer","17",1556.20000004768,"4","Cut_jazz_1.mp3","music"
4769,"computer","18",690.5,"4","Classical_8.mp3","music"
4769,"computer","19",1724.60000002384,"6","Cut_jazz_16.mp3","music"
4738,"computer","1",3397.89999997616,"5","Cut_jazz_19.mp3","music"
4738,"computer","2",793.59999999404,"6","Classical_15.mp3","music"
4738,"computer","3",1913.90000000596,"3","Classical_4.mp3","music"
4738,"computer","4",1401.30000001192,"7","Classical_1.mp3","music"
4738,"computer","5",895.199999988079,"5","Cut_jazz_1.mp3","music"
4738,"computer","6",1046.59999999404,"2","foil.mp3","music"
4738,"computer","7",1398.79999998212,"2","Classical_18.mp3","music"
4738,"computer","8",3023.89999997616,"4","Classical_6.mp3","music"
4738,"computer","9",584.299999982119,"6","Classical_8.mp3","music"
4738,"computer","10",1900.80000001192,"7","Classical_7.mp3","music"
4738,"computer","11",530.699999988079,"6","Cut_jazz_7.mp3","music"
4738,"computer","12",594.40000000596,"5","Classical_17.mp3","music"
4738,"computer","13",1261.70000001788,"5","Cut_jazz_16.mp3","music"
4738,"computer","14",918.700000017881,"8","Cut_jazz_14.mp3","music"
4738,"computer","15",664.40000000596,"3","Classical_2.mp3","music"
4738,"computer","16",951.699999988079,"8","Classical_19.mp3","music"
4738,"computer","17",1035.40000000596,"5","Cut_jazz_5.mp3","music"
4738,"computer","18",558.700000017881,"7","Cut_jazz_2.mp3","music"
4738,"computer","19",570.90000000596,"2","Cut_jazz_10.mp3","music"
4764,"computer","1",1577,"8","Classical_19.mp3","music"
4764,"computer","2",959.10000000149,"2","Cut_jazz_10.mp3","music"
4764,"computer","3",1014.80000000075,"6","Classical_17.mp3","music"
4764,"computer","4",742.60000000149,"1","Cut_jazz_5.mp3","music"
4764,"computer","5",1783.19999999925,"5","Classical_15.mp3","music"
4764,"computer","6",759.099999997765,"7","Cut_jazz_2.mp3","music"
4764,"computer","7",1790.89999999851,"7","Classical_2.mp3","music"
4764,"computer","8",1453.60000000149,"4","Cut_jazz_16.mp3","music"
4764,"computer","9",1178.60000000149,"5","Cut_jazz_7.mp3","music"
4764,"computer","10",2028.60000000149,"7","Classical_8.mp3","music"
4764,"computer","11",1194.30000000075,"8","Classical_7.mp3","music"
4764,"computer","12",1894.80000000075,"8","Classical_1.mp3","music"
4764,"computer","13",10253.3999999985,"7","Classical_6.mp3","music"
4764,"computer","14",1031.89999999851,"1","Classical_4.mp3","music"
4764,"computer","15",1314.90000000224,"3","Cut_jazz_1.mp3","music"
4764,"computer","16",1177.60000000149,"4","Cut_jazz_19.mp3","music"
4764,"computer","17",1743.80000000075,"5","Classical_18.mp3","music"
4764,"computer","18",1429.60000000149,"2","foil.mp3","music"
4764,"computer","19",7532.39999999851,"6","Cut_jazz_14.mp3","music"
4889,"computer","1",1910.79999999702,"6","Classical_7.mp3","music"
4889,"computer","2",860.40000000596,"2","Classical_6.mp3","music"
4889,"computer","3",729.09999999404,"5","Classical_18.mp3","music"
4889,"computer","4",6731.59999999404,"3","Cut_jazz_1.mp3","music"
4889,"computer","5",688.90000000596,"2","Cut_jazz_19.mp3","music"
4889,"computer","6",663.20000000298,"6","Cut_jazz_2.mp3","music"
4889,"computer","7",1642.69999998808,"2","foil.mp3","music"
4889,"computer","8",3969.79999999702,"2","Classical_17.mp3","music"
4889,"computer","9",636.29999999702,"2","Classical_15.mp3","music"
4889,"computer","10",663.59999999404,"4","Cut_jazz_5.mp3","music"
4889,"computer","11",890.29999999702,"3","Cut_jazz_10.mp3","music"
4889,"computer","12",817.20000000298,"7","Classical_8.mp3","music"
4889,"computer","13",734.90000000596,"2","Classical_1.mp3","music"
4889,"computer","14",1442.79999999702,"3","Cut_jazz_7.mp3","music"
4889,"computer","15",3542.70000000298,"5","Cut_jazz_16.mp3","music"
4889,"computer","16",3688.40000000596,"4","Classical_4.mp3","music"
4889,"computer","17",1189.29999999702,"4","Classical_2.mp3","music"
4889,"computer","18",1822.20000000298,"2","Cut_jazz_14.mp3","music"
4889,"computer","19",2776.20000000298,"4","Classical_19.mp3","music"
4771,"computer","1",2191.7000002861,"5","Classical_18.mp3","music"
4771,"computer","2",1116.7999997139,"2","Cut_jazz_16.mp3","music"
4771,"computer","3",1499.19999980927,"6","Classical_4.mp3","music"
4771,"computer","4",748.699999809265,"5","Classical_17.mp3","music"
4771,"computer","5",712.299999713898,"4","Cut_jazz_1.mp3","music"
4771,"computer","6",1170.5,"1","Cut_jazz_19.mp3","music"
4771,"computer","7",726.300000190735,"7","Classical_1.mp3","music"
4771,"computer","8",1092.5,"2","Cut_jazz_10.mp3","music"
4771,"computer","9",740.699999809265,"7","Classical_6.mp3","music"
4771,"computer","10",729,"6","Classical_8.mp3","music"
4771,"computer","11",1670.59999990463,"9","Classical_15.mp3","music"
4771,"computer","12",1400.7000002861,"2","Classical_2.mp3","music"
4771,"computer","13",961.199999809265,"9","Classical_19.mp3","music"
4771,"computer","14",624.599999904633,"2","Cut_jazz_7.mp3","music"
4771,"computer","15",1371.39999961853,"8","Classical_7.mp3","music"
4771,"computer","16",661.400000095367,"6","Cut_jazz_2.mp3","music"
4771,"computer","17",2279.59999990463,"2","foil.mp3","music"
4771,"computer","18",977.400000095367,"3","Cut_jazz_14.mp3","music"
4771,"computer","19",707.199999809265,"7","Cut_jazz_5.mp3","music"
4807,"computer","1",958.699999988079,"6","Classical_8.mp3","music"
4807,"computer","2",1472.90000000596,"2","Cut_jazz_10.mp3","music"
4807,"computer","3",1495.40000000596,"3","Cut_jazz_16.mp3","music"
4807,"computer","4",1037.09999999404,"5","Classical_6.mp3","music"
4807,"computer","5",752,"4","Cut_jazz_1.mp3","music"
4807,"computer","6",1140.19999998808,"3","Classical_4.mp3","music"
4807,"computer","7",955.59999999404,"5","Classical_18.mp3","music"
4807,"computer","8",931.800000011921,"8","Classical_17.mp3","music"
4807,"computer","9",566.40000000596,"1","Cut_jazz_5.mp3","music"
4807,"computer","10",807.5,"8","Classical_1.mp3","music"
4807,"computer","11",579,"7","Classical_2.mp3","music"
4807,"computer","12",1026.5,"5","Cut_jazz_7.mp3","music"
4807,"computer","13",1031.30000001192,"9","Classical_19.mp3","music"
4807,"computer","14",513.90000000596,"6","Classical_15.mp3","music"
4807,"computer","15",883.5,"3","Cut_jazz_19.mp3","music"
4807,"computer","16",904.90000000596,"1","Cut_jazz_14.mp3","music"
4807,"computer","17",824,"9","Classical_7.mp3","music"
4807,"computer","18",1011.19999998808,"6","Cut_jazz_2.mp3","music"
4807,"computer","19",2353.40000000596,"2","foil.mp3","music"
4774,"computer","1",1990.19999992847,"4","image36.jpg","images"
4774,"computer","2",579.5,"5","image35.jpg","images"
4774,"computer","3",656,"4","image52.jpg","images"
4774,"computer","4",939.100000023842,"3","image34.jpg","images"
4774,"computer","5",871.800000071526,"6","image5.jpg","images"
4774,"computer","6",650.399999976158,"6","image14.jpg","images"
4774,"computer","7",1572.39999997616,"7","image20.jpg","images"
4774,"computer","8",696.899999976158,"4","image33.jpg","images"
4774,"computer","9",713.699999928474,"7","image2.jpg","images"
4774,"computer","10",760.200000047684,"4","image47.jpg","images"
4774,"computer","11",734.100000023842,"4","image1.jpg","images"
4774,"computer","12",649.600000023842,"2","image15.jpg","images"
4774,"computer","13",1030,"4","image4.jpg","images"
4774,"computer","14",699.799999952316,"5","image17.jpg","images"
4774,"computer","15",1945.70000004768,"5","image3.jpg","images"
4774,"computer","16",1097.70000004768,"5","image10.jpg","images"
4774,"computer","17",678.600000023842,"5","image39.jpg","images"
4774,"computer","18",832.100000023842,"7","image12.jpg","images"
4843,"computer","1",1350.5,"1","image33.jpg","images"
4843,"computer","2",978.299999999814,"4","image47.jpg","images"
4843,"computer","3",843,"4","image52.jpg","images"
4843,"computer","4",916.5,"8","image12.jpg","images"
4843,"computer","5",1214.59999999963,"6","image3.jpg","images"
4843,"computer","6",967.299999999814,"5","image39.jpg","images"
4843,"computer","7",2353.90000000037,"6","image4.jpg","images"
4843,"computer","8",2277.90000000037,"5","image15.jpg","images"
4843,"computer","9",632.200000000186,"3","image2.jpg","images"
4843,"computer","10",996.599999999627,"7","image36.jpg","images"
4843,"computer","11",1404,"6","image17.jpg","images"
4843,"computer","12",1140.70000000019,"4","image10.jpg","images"
4843,"computer","13",840.5,"5","image34.jpg","images"
4843,"computer","14",907.100000000559,"1","image1.jpg","images"
4843,"computer","15",834.5,"8","image5.jpg","images"
4843,"computer","16",998,"7","image35.jpg","images"
4843,"computer","17",1153.59999999963,"5","image20.jpg","images"
4843,"computer","18",945.100000000559,"9","image14.jpg","images"
4801,"computer","1",5673,"4","image52.jpg","images"
4801,"computer","2",2820.5,"5","image2.jpg","images"
4801,"computer","3",790.5,"9","image12.jpg","images"
4801,"computer","4",763.399999856949,"1","image15.jpg","images"
4801,"computer","5",1418.09999990463,"6","image3.jpg","images"
4801,"computer","6",2400.89999985695,"4","image35.jpg","images"
4801,"computer","7",542.700000047684,"9","image39.jpg","images"
4801,"computer","8",1953.79999995232,"6","image47.jpg","images"
4801,"computer","9",1096.80000019073,"8","image33.jpg","images"
4801,"computer","10",1917.39999985695,"2","image4.jpg","images"
4801,"computer","11",1589.79999995232,"3","image36.jpg","images"
4801,"computer","12",1056.29999995232,"9","image34.jpg","images"
4801,"computer","13",1513.79999995232,"6","image1.jpg","images"
4801,"computer","14",606.5,"3","image14.jpg","images"
4801,"computer","15",716.900000095367,"4","image20.jpg","images"
4801,"computer","16",858,"3","image10.jpg","images"
4801,"computer","17",882.900000095367,"2","image17.jpg","images"
4801,"computer","18",1242.39999985695,"3","image5.jpg","images"
4888,"computer","1",1407.09999990463,"3","image52.jpg","images"
4888,"computer","2",868.200000047684,"4","image20.jpg","images"
4888,"computer","3",586.5,"4","image2.jpg","images"
4888,"computer","4",858.5,"2","image33.jpg","images"
4888,"computer","5",882.900000095367,"6","image17.jpg","images"
4888,"computer","6",850.599999904633,"7","image3.jpg","images"
4888,"computer","7",714,"9","image12.jpg","images"
4888,"computer","8",984.799999952316,"5","image15.jpg","images"
4888,"computer","9",522,"1","image47.jpg","images"
4888,"computer","10",866.299999952316,"7","image14.jpg","images"
4888,"computer","11",713.299999952316,"5","image10.jpg","images"
4888,"computer","12",953.700000047684,"9","image4.jpg","images"
4888,"computer","13",1014.20000004768,"4","image36.jpg","images"
4888,"computer","14",977.799999952316,"6","image39.jpg","images"
4888,"computer","15",804.5,"6","image5.jpg","images"
4888,"computer","16",1391.40000009537,"1","image34.jpg","images"
4888,"computer","17",889.900000095367,"4","image35.jpg","images"
4888,"computer","18",1215.59999990463,"4","image1.jpg","images"
4824,"computer","1",3070.29999995232,"2","image1.jpg","images"
4824,"computer","2",736.699999928474,"3","image10.jpg","images"
4824,"computer","3",900.899999976158,"1","image3.jpg","images"
4824,"computer","4",574.299999952316,"5","image39.jpg","images"
4824,"computer","5",606.099999904633,"2","image34.jpg","images"
4824,"computer","6",547.299999952316,"6","image2.jpg","images"
4824,"computer","7",737.399999976158,"4","image14.jpg","images"
4824,"computer","8",1106.09999990463,"2","image33.jpg","images"
4824,"computer","9",455.600000023842,"4","image5.jpg","images"
4824,"computer","10",823.899999976158,"1","image4.jpg","images"
4824,"computer","11",784.399999976158,"4","image12.jpg","images"
4824,"computer","12",473.900000095367,"3","image35.jpg","images"
4824,"computer","13",689.400000095367,"2","image47.jpg","images"
4824,"computer","14",797.100000023842,"2","image15.jpg","images"
4824,"computer","15",673.299999952316,"6","image20.jpg","images"
4824,"computer","16",732.899999976158,"7","image52.jpg","images"
4824,"computer","17",527.299999952316,"3","image17.jpg","images"
4824,"computer","18",567.700000047684,"2","image36.jpg","images"
4891,"computer","1",1967.69999998808,"1","image3.jpg","images"
4891,"computer","2",1193,"7","image14.jpg","images"
4891,"computer","3",1017.40000000596,"1","image4.jpg","images"
4891,"computer","4",1031.60000002384,"1","image12.jpg","images"
4891,"computer","5",909.09999999404,"9","image35.jpg","images"
4891,"computer","6",865.699999988079,"2","image36.jpg","images"
4891,"computer","7",1118.69999998808,"5","image39.jpg","images"
4891,"computer","8",715.5,"1","image33.jpg","images"
4891,"computer","9",1080.70000001788,"1","image1.jpg","images"
4891,"computer","10",834,"3","image20.jpg","images"
4891,"computer","11",661.199999988079,"1","image17.jpg","images"
4891,"computer","12",804.5,"9","image34.jpg","images"
4891,"computer","13",1076.10000002384,"2","image47.jpg","images"
4891,"computer","14",683.799999982119,"3","image5.jpg","images"
4891,"computer","15",755.199999988079,"1","image52.jpg","images"
4891,"computer","16",712.200000017881,"5","image15.jpg","images"
4891,"computer","17",828.799999982119,"5","image10.jpg","images"
4891,"computer","18",667.399999976158,"1","image2.jpg","images"
4743,"computer","1",466.899999856949,"5","image20.jpg","images"
4743,"computer","2",443,"5","image4.jpg","images"
4743,"computer","3",1416.29999995232,"5","image2.jpg","images"
4743,"computer","4",1021.60000014305,"5","image15.jpg","images"
4743,"computer","5",631.199999809265,"5","image3.jpg","images"
4743,"computer","6",2104.70000004768,"5","image35.jpg","images"
4743,"computer","7",179,"5","image12.jpg","images"
4743,"computer","8",732.400000095367,"5","image39.jpg","images"
4743,"computer","9",600.299999952316,"5","image34.jpg","images"
4743,"computer","10",3103.09999990463,"5","image52.jpg","images"
4743,"computer","11",2322.19999980927,"5","image33.jpg","images"
4743,"computer","12",3520,"5","image10.jpg","images"
4743,"computer","13",1466.10000014305,"5","image5.jpg","images"
4743,"computer","14",417.200000047684,"5","image14.jpg","images"
4743,"computer","15",560.5,"5","image36.jpg","images"
4743,"computer","16",668.5,"5","image1.jpg","images"
4743,"computer","17",1683.90000009537,"5","image47.jpg","images"
4743,"computer","18",600.899999856949,"5","image17.jpg","images"
4854,"computer","1",5201.5,"5","image52.jpg","images"
4854,"computer","2",2267.89999997616,"5","image17.jpg","images"
4854,"computer","3",1335.89999997616,"9","image10.jpg","images"
4854,"computer","4",2017.60000002384,"7","image34.jpg","images"
4854,"computer","5",1484.19999992847,"7","image47.jpg","images"
4854,"computer","6",1444,"6","image39.jpg","images"
4854,"computer","7",2428.69999992847,"3","image33.jpg","images"
4854,"computer","8",1348.20000004768,"6","image35.jpg","images"
4854,"computer","9",785.699999928474,"6","image14.jpg","images"
4854,"computer","10",2040.70000004768,"8","image36.jpg","images"
4854,"computer","11",1911.19999992847,"1","image15.jpg","images"
4854,"computer","12",1567,"2","image5.jpg","images"
4854,"computer","13",2204.20000004768,"4","image20.jpg","images"
4854,"computer","14",1758.20000004768,"1","image1.jpg","images"
4854,"computer","15",1993.19999992847,"5","image3.jpg","images"
4854,"computer","16",1643.59999990463,"9","image4.jpg","images"
4854,"computer","17",1766.69999992847,"6","image12.jpg","images"
4854,"computer","18",1208.70000004768,"4","image2.jpg","images"
4821,"computer","1",2947.5,"2","image14.jpg","images"
4821,"computer","2",3311.89999997616,"5","image33.jpg","images"
4821,"computer","3",2479.40000000596,"6","image10.jpg","images"
4821,"computer","4",1160.80000001192,"7","image39.jpg","images"
4821,"computer","5",558.200000017881,"9","image20.jpg","images"
4821,"computer","6",549.600000023842,"9","image17.jpg","images"
4821,"computer","7",1184.5,"8","image47.jpg","images"
4821,"computer","8",939.5,"1","image12.jpg","images"
4821,"computer","9",865.40000000596,"9","image3.jpg","images"
4821,"computer","10",690,"1","image4.jpg","images"
4821,"computer","11",1179.40000000596,"6","image35.jpg","images"
4821,"computer","12",1793.09999999404,"8","image5.jpg","images"
4821,"computer","13",1211.5,"4","image34.jpg","images"
4821,"computer","14",3441.59999999404,"4","image36.jpg","images"
4821,"computer","15",1812.40000000596,"7","image52.jpg","images"
4821,"computer","16",1395.5,"7","image2.jpg","images"
4821,"computer","17",871.5,"1","image15.jpg","images"
4821,"computer","18",398.100000023842,"1","image1.jpg","images"
4873,"computer","1",2634.5,"5","image36.jpg","images"
4873,"computer","2",837.299999952316,"6","image3.jpg","images"
4873,"computer","3",1108.30000007153,"2","image35.jpg","images"
4873,"computer","4",680.100000023842,"8","image5.jpg","images"
4873,"computer","5",733.699999928474,"8","image52.jpg","images"
4873,"computer","6",802.100000023842,"5","image17.jpg","images"
4873,"computer","7",1881.89999997616,"4","image39.jpg","images"
4873,"computer","8",855,"5","image4.jpg","images"
4873,"computer","9",3601.39999997616,"4","image1.jpg","images"
4873,"computer","10",1161.09999990463,"9","image20.jpg","images"
4873,"computer","11",726.800000071526,"6","image12.jpg","images"
4873,"computer","12",733.799999952316,"5","image14.jpg","images"
4873,"computer","13",724.100000023842,"1","image33.jpg","images"
4873,"computer","14",3230.39999997616,"5","image47.jpg","images"
4873,"computer","15",3104.69999992847,"6","image10.jpg","images"
4873,"computer","16",1626.39999997616,"3","image15.jpg","images"
4873,"computer","17",975.799999952316,"1","image34.jpg","images"
4873,"computer","18",2189.29999995232,"4","image2.jpg","images"
4754,"computer","1",1692.39999997616,"8","image3.jpg","images"
4754,"computer","2",960.5,"2","image34.jpg","images"
4754,"computer","3",663.5,"4","image52.jpg","images"
4754,"computer","4",782.899999976158,"4","image10.jpg","images"
4754,"computer","5",984.5,"4","image4.jpg","images"
4754,"computer","6",748.899999976158,"8","image5.jpg","images"
4754,"computer","7",790.299999952316,"3","image33.jpg","images"
4754,"computer","8",1384.29999995232,"5","image12.jpg","images"
4754,"computer","9",1280.20000004768,"5","image1.jpg","images"
4754,"computer","10",792.799999952316,"7","image2.jpg","images"
4754,"computer","11",604.899999976158,"8","image39.jpg","images"
4754,"computer","12",857.200000047684,"6","image20.jpg","images"
4754,"computer","13",813,"5","image35.jpg","images"
4754,"computer","14",405.200000047684,"1","image15.jpg","images"
4754,"computer","15",833.299999952316,"6","image36.jpg","images"
4754,"computer","16",654.899999976158,"5","image17.jpg","images"
4754,"computer","17",803.799999952316,"4","image47.jpg","images"
4754,"computer","18",688.100000023842,"6","image14.jpg","images"
4772,"computer","1",2004.79999923706,"4","image10.jpg","images"
4772,"computer","2",1211.20000076294,"8","image20.jpg","images"
4772,"computer","3",839.800000190735,"9","image17.jpg","images"
4772,"computer","4",930.599999427795,"6","image12.jpg","images"
4772,"computer","5",819.699999809265,"8","image14.jpg","images"
4772,"computer","6",823.599999427795,"1","image15.jpg","images"
4772,"computer","7",830.599999427795,"9","image2.jpg","images"
4772,"computer","8",862.900000572205,"3","image36.jpg","images"
4772,"computer","9",906.700000762939,"1","image47.jpg","images"
4772,"computer","10",431.699999809265,"1","image33.jpg","images"
4772,"computer","11",506.900000572205,"1","image34.jpg","images"
4772,"computer","12",984.60000038147,"2","image4.jpg","images"
4772,"computer","13",693.89999961853,"1","image35.jpg","images"
4772,"computer","14",1003.89999961853,"5","image1.jpg","images"
4772,"computer","15",979.400000572205,"8","image5.jpg","images"
4772,"computer","16",1031.10000038147,"9","image39.jpg","images"
4772,"computer","17",590.60000038147,"8","image52.jpg","images"
4772,"computer","18",514.400000572205,"9","image3.jpg","images"
4832,"computer","1",2436.5,"6","image12.jpg","images"
4832,"computer","2",3348,"3","image35.jpg","images"
4832,"computer","3",1267,"7","image5.jpg","images"
4832,"computer","4",1044,"5","image1.jpg","images"
4832,"computer","5",861.600000008941,"7","image17.jpg","images"
4832,"computer","6",1055.20000000298,"4","image52.jpg","images"
4832,"computer","7",2590.70000000298,"2","image33.jpg","images"
4832,"computer","8",1812,"4","image36.jpg","images"
4832,"computer","9",952.20000000298,"9","image14.jpg","images"
4832,"computer","10",1278.59999999404,"1","image47.jpg","images"
4832,"computer","11",959.5,"9","image20.jpg","images"
4832,"computer","12",940.90000000596,"9","image2.jpg","images"
4832,"computer","13",1062.09999999404,"6","image3.jpg","images"
4832,"computer","14",469.29999999702,"1","image34.jpg","images"
4832,"computer","15",1340.90000000596,"4","image4.jpg","images"
4832,"computer","16",870.70000000298,"2","image10.jpg","images"
4832,"computer","17",2720.20000000298,"6","image39.jpg","images"
4832,"computer","18",725.199999988079,"1","image15.jpg","images"
4861,"computer","1",1352.40000009537,"6","image17.jpg","images"
4861,"computer","2",941.700000286102,"6","image3.jpg","images"
4861,"computer","3",1912.80000019073,"4","image15.jpg","images"
4861,"computer","4",1149.89999961853,"4","image33.jpg","images"
4861,"computer","5",1613.59999990463,"3","image47.jpg","images"
4861,"computer","6",1119.80000019073,"7","image20.jpg","images"
4861,"computer","7",946,"6","image52.jpg","images"
4861,"computer","8",2814.30000019073,"4","image10.jpg","images"
4861,"computer","9",841.400000095367,"4","image34.jpg","images"
4861,"computer","10",1142.69999980927,"6","image12.jpg","images"
4861,"computer","11",1498.2999997139,"3","image4.jpg","images"
4861,"computer","12",1162.2999997139,"5","image1.jpg","images"
4861,"computer","13",1078.40000009537,"6","image14.jpg","images"
4861,"computer","14",917.300000190735,"3","image35.jpg","images"
4861,"computer","15",1143.89999961853,"6","image5.jpg","images"
4861,"computer","16",1357.09999990463,"7","image2.jpg","images"
4861,"computer","17",1911.40000009537,"4","image36.jpg","images"
4861,"computer","18",791.700000286102,"6","image39.jpg","images"
4769,"computer","1",1285,"4","image34.jpg","images"
4769,"computer","2",546.600000023842,"5","image15.jpg","images"
4769,"computer","3",673.600000023842,"3","image36.jpg","images"
4769,"computer","4",360.800000071526,"6","image14.jpg","images"
4769,"computer","5",2974,"4","image5.jpg","images"
4769,"computer","6",656.600000023842,"2","image1.jpg","images"
4769,"computer","7",509.5,"9","image2.jpg","images"
4769,"computer","8",278.300000071526,"6","image17.jpg","images"
4769,"computer","9",288.599999904633,"6","image35.jpg","images"
4769,"computer","10",167.099999904633,"6","image3.jpg","images"
4769,"computer","11",2087.90000009537,"5","image12.jpg","images"
4769,"computer","12",1413.20000004768,"5","image20.jpg","images"
4769,"computer","13",670.199999928474,"5","image4.jpg","images"
4769,"computer","14",1325.20000004768,"4","image39.jpg","images"
4769,"computer","15",552.400000095367,"4","image47.jpg","images"
4769,"computer","16",940.5,"5","image52.jpg","images"
4769,"computer","17",3423.29999995232,"5","image10.jpg","images"
4769,"computer","18",1172.40000009537,"6","image33.jpg","images"
4738,"computer","1",1346.19999998808,"7","image20.jpg","images"
4738,"computer","2",1866.09999999404,"3","image10.jpg","images"
4738,"computer","3",668.09999999404,"3","image35.jpg","images"
4738,"computer","4",653.299999982119,"2","image34.jpg","images"
4738,"computer","5",797,"4","image47.jpg","images"
4738,"computer","6",821.700000017881,"3","image15.jpg","images"
4738,"computer","7",1469.80000001192,"6","image3.jpg","images"
4738,"computer","8",652,"4","image39.jpg","images"
4738,"computer","9",2097.5,"2","image36.jpg","images"
4738,"computer","10",1571.10000002384,"7","image2.jpg","images"
4738,"computer","11",1019.89999997616,"8","image5.jpg","images"
4738,"computer","12",765,"7","image14.jpg","images"
4738,"computer","13",816.09999999404,"3","image33.jpg","images"
4738,"computer","14",773.09999999404,"2","image4.jpg","images"
4738,"computer","15",655.40000000596,"9","image52.jpg","images"
4738,"computer","16",810.200000017881,"6","image17.jpg","images"
4738,"computer","17",819.300000011921,"1","image1.jpg","images"
4738,"computer","18",909.5,"7","image12.jpg","images"
4764,"computer","1",2178.79999999702,"4","image36.jpg","images"
4764,"computer","2",1622.5,"6","image17.jpg","images"
4764,"computer","3",943.60000000149,"9","image5.jpg","images"
4764,"computer","4",1326.89999999851,"8","image2.jpg","images"
4764,"computer","5",793.300000000745,"9","image20.jpg","images"
4764,"computer","6",1502.70000000298,"1","image15.jpg","images"
4764,"computer","7",713.5,"2","image33.jpg","images"
4764,"computer","8",1050.10000000149,"8","image14.jpg","images"
4764,"computer","9",697,"7","image12.jpg","images"
4764,"computer","10",1014.69999999925,"7","image39.jpg","images"
4764,"computer","11",1937.69999999925,"6","image3.jpg","images"
4764,"computer","12",666.29999999702,"5","image10.jpg","images"
4764,"computer","13",689.699999999255,"3","image34.jpg","images"
4764,"computer","14",1225.19999999925,"5","image35.jpg","images"
4764,"computer","15",1033.19999999925,"3","image4.jpg","images"
4764,"computer","16",952.5,"8","image52.jpg","images"
4764,"computer","17",688.300000000745,"5","image47.jpg","images"
4764,"computer","18",1487.80000000075,"2","image1.jpg","images"
4887,"computer","1",1944.72000002861,"1","image1.jpg","images"
4887,"computer","2",1170.73999997228,"6","image14.jpg","images"
4887,"computer","3",1066.97499996517,"6","image2.jpg","images"
4887,"computer","4",899.195000063628,"1","image34.jpg","images"
4887,"computer","5",1032.68999990541,"7","image47.jpg","images"
4887,"computer","6",1048.45499992371,"6","image12.jpg","images"
4887,"computer","7",755.059999995865,"6","image3.jpg","images"
4887,"computer","8",512.605000054464,"6","image36.jpg","images"
4887,"computer","9",813.730000052601,"4","image15.jpg","images"
4887,"computer","10",426.615000003949,"5","image35.jpg","images"
4887,"computer","11",859.019999974407,"6","image5.jpg","images"
4887,"computer","12",792.275000014342,"4","image4.jpg","images"
4887,"computer","13",1356.16500000469,"5","image17.jpg","images"
4887,"computer","14",1319.04999993276,"4","image52.jpg","images"
4887,"computer","15",486.754999961704,"7","image10.jpg","images"
4887,"computer","16",614.440000033937,"1","image33.jpg","images"
4887,"computer","17",1539.91500008851,"7","image39.jpg","images"
4887,"computer","18",1033.59000000637,"6","image20.jpg","images"
4889,"computer","1",820.20000000298,"1","image39.jpg","images"
4889,"computer","2",1212.09999999404,"1","image47.jpg","images"
4889,"computer","3",661,"7","image3.jpg","images"
4889,"computer","4",798.70000000298,"1","image33.jpg","images"
4889,"computer","5",457.59999999404,"1","image35.jpg","images"
4889,"computer","6",594.5,"1","image4.jpg","images"
4889,"computer","7",681.40000000596,"1","image34.jpg","images"
4889,"computer","8",647.20000000298,"4","image20.jpg","images"
4889,"computer","9",1391.20000000298,"1","image10.jpg","images"
4889,"computer","10",549.800000011921,"8","image17.jpg","images"
4889,"computer","11",891,"4","image52.jpg","images"
4889,"computer","12",819.100000008941,"2","image2.jpg","images"
4889,"computer","13",658.79999999702,"1","image15.jpg","images"
4889,"computer","14",643.59999999404,"6","image5.jpg","images"
4889,"computer","15",683.399999991059,"1","image12.jpg","images"
4889,"computer","16",711,"1","image1.jpg","images"
4889,"computer","17",1047.19999998808,"5","image14.jpg","images"
4889,"computer","18",1027.5,"1","image36.jpg","images"
4807,"computer","1",1407.89999997616,"6","image3.jpg","images"
4807,"computer","2",798.200000017881,"2","image1.jpg","images"
4807,"computer","3",714.59999999404,"7","image39.jpg","images"
4807,"computer","4",430.799999982119,"8","image52.jpg","images"
4807,"computer","5",854.300000011921,"2","image10.jpg","images"
4807,"computer","6",658,"1","image4.jpg","images"
4807,"computer","7",1020.39999997616,"9","image2.jpg","images"
4807,"computer","8",902.700000017881,"6","image14.jpg","images"
4807,"computer","9",671,"3","image12.jpg","images"
4807,"computer","10",584.299999982119,"1","image15.jpg","images"
4807,"computer","11",1759.39999997616,"7","image17.jpg","images"
4807,"computer","12",813.299999982119,"3","image36.jpg","images"
4807,"computer","13",750.399999976158,"7","image5.jpg","images"
4807,"computer","14",492.300000011921,"7","image33.jpg","images"
4807,"computer","15",401,"8","image20.jpg","images"
4807,"computer","16",440.800000011921,"6","image34.jpg","images"
4807,"computer","17",821.90000000596,"7","image35.jpg","images"
4807,"computer","18",1062.5,"2","image47.jpg","images"
4771,"computer","1",1015.59999990463,"8","image36.jpg","images"
4771,"computer","2",780,"7","image20.jpg","images"
4771,"computer","3",1450.7000002861,"9","image47.jpg","images"
4771,"computer","4",974.89999961853,"8","image3.jpg","images"
4771,"computer","5",857.5,"7","image10.jpg","images"
4771,"computer","6",1463.5,"3","image14.jpg","images"
4771,"computer","7",811.199999809265,"3","image12.jpg","images"
4771,"computer","8",845.299999713898,"3","image15.jpg","images"
4771,"computer","9",1552.40000009537,"9","image33.jpg","images"
4771,"computer","10",725.099999904633,"9","image2.jpg","images"
4771,"computer","11",1218.59999990463,"5","image17.jpg","images"
4771,"computer","12",754.900000095367,"4","image39.jpg","images"
4771,"computer","13",1302.09999990463,"9","image35.jpg","images"
4771,"computer","14",1554.10000038147,"4","image4.jpg","images"
4771,"computer","15",1171.5,"9","image34.jpg","images"
4771,"computer","16",682.699999809265,"6","image5.jpg","images"
4771,"computer","17",1117.90000009537,"9","image1.jpg","images"
4771,"computer","18",1284.30000019073,"7","image52.jpg","images"
4898,"computer","1",2684.90000000596,"4","image2.jpg","images"
4898,"computer","2",713.5,"5","image14.jpg","images"
4898,"computer","3",1062.90000000596,"3","image12.jpg","images"
4898,"computer","4",716.700000017881,"3","image4.jpg","images"
4898,"computer","5",1024.69999998808,"4","image35.jpg","images"
4898,"computer","6",1022.5,"4","image33.jpg","images"
4898,"computer","7",958.600000023842,"5","image52.jpg","images"
4898,"computer","8",784.59999999404,"3","image1.jpg","images"
4898,"computer","9",621.800000011921,"5","image5.jpg","images"
4898,"computer","10",1110.10000002384,"3","image15.jpg","images"
4898,"computer","11",1140.90000000596,"4","image36.jpg","images"
4898,"computer","12",625.09999999404,"3","image10.jpg","images"
4898,"computer","13",741.800000011921,"3","image17.jpg","images"
4898,"computer","14",486.300000011921,"5","image20.jpg","images"
4898,"computer","15",721.09999999404,"4","image39.jpg","images"
4898,"computer","16",923.5,"5","image47.jpg","images"
4898,"computer","17",650.700000017881,"4","image34.jpg","images"
4898,"computer","18",639,"5","image3.jpg","images"
4830,"computer","1",2207.29999999702,"7","image3.jpg","images"
4830,"computer","2",880.699999999255,"2","image33.jpg","images"
4830,"computer","3",816.400000002235,"6","image2.jpg","images"
4830,"computer","4",1199.19999999925,"2","image35.jpg","images"
4830,"computer","5",2078.39999999851,"4","image52.jpg","images"
4830,"computer","6",1395.90000000224,"6","image5.jpg","images"
4830,"computer","7",1108.79999999702,"2","image39.jpg","images"
4830,"computer","8",1351.69999999925,"8","image14.jpg","images"
4830,"computer","9",2735.20000000298,"1","image36.jpg","images"
4830,"computer","10",1569,"7","image12.jpg","images"
4830,"computer","11",737.5,"5","image20.jpg","images"
4830,"computer","12",1135.40000000224,"4","image1.jpg","images"
4830,"computer","13",1245.59999999776,"4","image10.jpg","images"
4830,"computer","14",944.5,"3","image47.jpg","images"
4830,"computer","15",877.800000000745,"6","image4.jpg","images"
4830,"computer","16",952.800000000745,"4","image15.jpg","images"
4830,"computer","17",1072.90000000224,"2","image34.jpg","images"
4830,"computer","18",1005.09999999776,"6","image17.jpg","images"
4787,"computer","1",1816,"1","image10.jpg","images"
4787,"computer","2",843,"2","image4.jpg","images"
4787,"computer","3",1054,"3","image14.jpg","images"
4787,"computer","4",418,"3","image39.jpg","images"
4787,"computer","5",809,"2","image20.jpg","images"
4787,"computer","6",663,"2","image17.jpg","images"
4787,"computer","7",760,"1","image34.jpg","images"
4787,"computer","8",422,"1","image35.jpg","images"
4787,"computer","9",1151,"1","image36.jpg","images"
4787,"computer","10",1567,"4","image3.jpg","images"
4787,"computer","11",19538,"3","image52.jpg","images"
4787,"computer","12",1018,"1","image47.jpg","images"
4787,"computer","13",506,"1","image15.jpg","images"
4787,"computer","14",471,"1","image1.jpg","images"
4787,"computer","15",1173,"3","image5.jpg","images"
4787,"computer","16",1105,"1","image33.jpg","images"
4787,"computer","17",1266,"3","image12.jpg","images"
4787,"computer","18",768,"4","image2.jpg","images"
4899,"computer","1",1719.79999995232,"9","image2.jpg","images"
4899,"computer","2",2828.90000009537,"2","image12.jpg","images"
4899,"computer","3",1154.20000004768,"3","image5.jpg","images"
4899,"computer","4",1666.5,"6","image3.jpg","images"
4899,"computer","5",1526.20000004768,"2","image33.jpg","images"
4899,"computer","6",3088.10000014305,"3","image1.jpg","images"
4899,"computer","7",3901.40000009537,"8","image20.jpg","images"
4899,"computer","8",2599.5,"2","image35.jpg","images"
4899,"computer","9",2380.70000004768,"6","image17.jpg","images"
4899,"computer","10",1359.09999990463,"6","image14.jpg","images"
4899,"computer","11",1004.29999995232,"1","image4.jpg","images"
4899,"computer","12",2038.90000009537,"8","image52.jpg","images"
4899,"computer","13",1319.20000004768,"7","image36.jpg","images"
4899,"computer","14",1319.5,"2","image34.jpg","images"
4899,"computer","15",948.200000047684,"9","image39.jpg","images"
4899,"computer","16",2145,"6","image10.jpg","images"
4899,"computer","17",2422.70000004768,"2","image47.jpg","images"
4899,"computer","18",653.100000143051,"1","image15.jpg","images"
4875,"computer","1",1359,"6","image3.jpg","images"
4875,"computer","2",1459,"8","image5.jpg","images"
4875,"computer","3",1556.5,"3","image52.jpg","images"
4875,"computer","4",1229.19999980927,"6","image4.jpg","images"
4875,"computer","5",1522.79999995232,"2","image33.jpg","images"
4875,"computer","6",1038.59999990463,"2","image47.jpg","images"
4875,"computer","7",980.799999952316,"8","image14.jpg","images"
4875,"computer","8",946.200000047684,"2","image34.jpg","images"
4875,"computer","9",2134.29999995232,"4","image39.jpg","images"
4875,"computer","10",1537.5,"1","image35.jpg","images"
4875,"computer","11",1278.60000014305,"3","image36.jpg","images"
4875,"computer","12",1568.89999985695,"7","image12.jpg","images"
4875,"computer","13",939.700000047684,"4","image10.jpg","images"
4875,"computer","14",1277,"7","image20.jpg","images"
4875,"computer","15",862.299999952316,"1","image1.jpg","images"
4875,"computer","16",1185.19999980927,"9","image15.jpg","images"
4875,"computer","17",1374.70000004768,"6","image2.jpg","images"
4875,"computer","18",1417.79999995232,"8","image17.jpg","images"
4896,"computer","1",2196,"4","image12.jpg","images"
4896,"computer","2",2558,"3","image34.jpg","images"
4896,"computer","3",942,"6","image17.jpg","images"
4896,"computer","4",913,"7","image52.jpg","images"
4896,"computer","5",644,"6","image39.jpg","images"
4896,"computer","6",1481,"6","image14.jpg","images"
4896,"computer","7",667,"2","image15.jpg","images"
4896,"computer","8",702,"4","image47.jpg","images"
4896,"computer","9",1255,"3","image33.jpg","images"
4896,"computer","10",1973,"3","image10.jpg","images"
4896,"computer","11",679.999999999993,"8","image2.jpg","images"
4896,"computer","12",1276,"3","image4.jpg","images"
4896,"computer","13",781,"2","image1.jpg","images"
4896,"computer","14",934,"6","image5.jpg","images"
4896,"computer","15",1083,"8","image20.jpg","images"
4896,"computer","16",1806,"6","image35.jpg","images"
4896,"computer","17",676,"5","image3.jpg","images"
4896,"computer","18",899,"3","image36.jpg","images"
4745,"computer","1",1822.59999990463,"4","image4.jpg","images"
4745,"computer","2",1531.20000004768,"7","image2.jpg","images"
4745,"computer","3",3381.60000002384,"6","image52.jpg","images"
4745,"computer","4",870.699999928474,"8","image3.jpg","images"
4745,"computer","5",789.100000023842,"8","image35.jpg","images"
4745,"computer","6",616,"9","image47.jpg","images"
4745,"computer","7",1603,"6","image1.jpg","images"
4745,"computer","8",1505.10000002384,"7","image34.jpg","images"
4745,"computer","9",2268.69999992847,"3","image33.jpg","images"
4745,"computer","10",1153.70000004768,"1","image10.jpg","images"
4745,"computer","11",1244.5,"7","image39.jpg","images"
4745,"computer","12",1373.89999997616,"3","image36.jpg","images"
4745,"computer","13",1387.19999992847,"8","image12.jpg","images"
4745,"computer","14",1146,"9","image20.jpg","images"
4745,"computer","15",819.5,"9","image5.jpg","images"
4745,"computer","16",594,"9","image17.jpg","images"
4745,"computer","17",941.900000095367,"7","image14.jpg","images"
4745,"computer","18",1537.69999992847,"2","image15.jpg","images"
4892,"computer","1",2298.20000004768,"6","image15.jpg","images"
4892,"computer","2",712.399999976158,"3","image52.jpg","images"
4892,"computer","3",856.200000047684,"8","image39.jpg","images"
4892,"computer","4",809.800000071526,"1","image36.jpg","images"
4892,"computer","5",1024.89999997616,"9","image20.jpg","images"
4892,"computer","6",2667.70000004768,"6","image34.jpg","images"
4892,"computer","7",715.700000047684,"1","image10.jpg","images"
4892,"computer","8",1678.59999990463,"3","image47.jpg","images"
4892,"computer","9",815.100000023842,"1","image33.jpg","images"
4892,"computer","10",806.300000071526,"1","image4.jpg","images"
4892,"computer","11",2691.60000002384,"4","image14.jpg","images"
4892,"computer","12",820.300000071526,"9","image2.jpg","images"
4892,"computer","13",838.799999952316,"2","image1.jpg","images"
4892,"computer","14",1124,"3","image17.jpg","images"
4892,"computer","15",658.699999928474,"3","image5.jpg","images"
4892,"computer","16",604.799999952316,"4","image35.jpg","images"
4892,"computer","17",651.799999952316,"2","image3.jpg","images"
4892,"computer","18",700.600000023842,"7","image12.jpg","images"
4856,"computer","1",1398.09999999404,"4","image47.jpg","images"
4856,"computer","2",1313.39999999851,"4","image1.jpg","images"
4856,"computer","3",1062.89999999851,"5","image4.jpg","images"
4856,"computer","4",297.30000000447,"6","image20.jpg","images"
4856,"computer","5",621.89999999851,"4","image35.jpg","images"
4856,"computer","6",877.39999999851,"2","image10.jpg","images"
4856,"computer","7",1267.20000000298,"3","image36.jpg","images"
4856,"computer","8",1658.60000000149,"5","image14.jpg","images"
4856,"computer","9",713.70000000298,"4","image33.jpg","images"
4856,"computer","10",1395,"7","image39.jpg","images"
4856,"computer","11",573,"7","image3.jpg","images"
4856,"computer","12",645.79999999702,"8","image2.jpg","images"
4856,"computer","13",598.60000000149,"8","image52.jpg","images"
4856,"computer","14",389.70000000298,"6","image5.jpg","images"
4856,"computer","15",1705.29999999702,"3","image34.jpg","images"
4856,"computer","16",1370.89999999851,"6","image12.jpg","images"
4856,"computer","17",645.29999999702,"8","image15.jpg","images"
4856,"computer","18",894.39999999851,"8","image17.jpg","images"
4844,"computer","1",2959.4000005722,"2","image10.jpg","images"
4844,"computer","2",1225.0999994278,"1","image33.jpg","images"
4844,"computer","3",1569.10000038147,"2","image47.jpg","images"
4844,"computer","4",2394.19999980927,"3","image2.jpg","images"
4844,"computer","5",1109.80000019073,"2","image36.jpg","images"
4844,"computer","6",3715.19999980927,"5","image17.jpg","images"
4844,"computer","7",937.800000190735,"6","image52.jpg","images"
4844,"computer","8",761.099999427795,"6","image20.jpg","images"
4844,"computer","9",1137,"3","image12.jpg","images"
4844,"computer","10",977.89999961853,"2","image15.jpg","images"
4844,"computer","11",1276,"2","image1.jpg","images"
4844,"computer","12",2156.5,"1","image4.jpg","images"
4844,"computer","13",1440.79999923706,"5","image39.jpg","images"
4844,"computer","14",1563.80000019073,"6","image5.jpg","images"
4844,"computer","15",2335.19999980927,"3","image35.jpg","images"
4844,"computer","16",1161.0999994278,"5","image3.jpg","images"
4844,"computer","17",1613,"5","image14.jpg","images"
4844,"computer","18",944.5,"1","image34.jpg","images"
4798,"computer","1",4345,"7","image52.jpg","images"
4798,"computer","2",2999.89999997616,"2","image33.jpg","images"
4798,"computer","3",3150.70000004768,"5","image17.jpg","images"
4798,"computer","4",1407.89999997616,"2","image10.jpg","images"
4798,"computer","5",1641.20000004768,"6","image20.jpg","images"
4798,"computer","6",2250,"8","image39.jpg","images"
4798,"computer","7",1183.30000007153,"1","image15.jpg","images"
4798,"computer","8",994.700000047684,"3","image36.jpg","images"
4798,"computer","9",749.800000071526,"9","image14.jpg","images"
4798,"computer","10",846.200000047684,"1","image47.jpg","images"
4798,"computer","11",792.600000023842,"2","image1.jpg","images"
4798,"computer","12",815.100000023842,"9","image12.jpg","images"
4798,"computer","13",914.800000071526,"2","image4.jpg","images"
4798,"computer","14",1211.5,"9","image2.jpg","images"
4798,"computer","15",4947.5,"6","image35.jpg","images"
4798,"computer","16",652.700000047684,"9","image3.jpg","images"
4798,"computer","17",1045,"2","image34.jpg","images"
4798,"computer","18",1170.29999995232,"6","image5.jpg","images"
4750,"computer","1",2496.19999998808,"7","image17.jpg","images"
4750,"computer","2",1318.5,"2","image34.jpg","images"
4750,"computer","3",793.899999976158,"3","image12.jpg","images"
4750,"computer","4",518.300000011921,"1","image15.jpg","images"
4750,"computer","5",1084.89999997616,"2","image1.jpg","images"
4750,"computer","6",1649.40000003576,"4","image47.jpg","images"
4750,"computer","7",466.899999976158,"1","image10.jpg","images"
4750,"computer","8",835.600000023842,"8","image2.jpg","images"
4750,"computer","9",959.400000035763,"1","image36.jpg","images"
4750,"computer","10",1851.19999998808,"7","image20.jpg","images"
4750,"computer","11",1140.39999997616,"6","image3.jpg","images"
4750,"computer","12",464.300000011921,"6","image5.jpg","images"
4750,"computer","13",354.300000011921,"5","image35.jpg","images"
4750,"computer","14",698.100000023842,"8","image14.jpg","images"
4750,"computer","15",461.5,"1","image4.jpg","images"
4750,"computer","16",792.099999964237,"9","image39.jpg","images"
4750,"computer","17",830.899999976158,"8","image52.jpg","images"
4750,"computer","18",1101.39999997616,"2","image33.jpg","images"
4866,"computer","1",1918.5,"1","image36.jpg","images"
4866,"computer","2",1008.10000000056,"1","image15.jpg","images"
4866,"computer","3",763.400000000373,"3","image47.jpg","images"
4866,"computer","4",706.5,"2","image10.jpg","images"
4866,"computer","5",680.199999999255,"6","image20.jpg","images"
4866,"computer","6",814.200000001118,"5","image52.jpg","images"
4866,"computer","7",1777,"6","image35.jpg","images"
4866,"computer","8",746.5,"1","image1.jpg","images"
4866,"computer","9",534.900000000373,"1","image12.jpg","images"
4866,"computer","10",1604.5,"3","image34.jpg","images"
4866,"computer","11",732.900000000373,"5","image3.jpg","images"
4866,"computer","12",756.200000001118,"6","image2.jpg","images"
4866,"computer","13",823.200000001118,"5","image39.jpg","images"
4866,"computer","14",478.200000001118,"1","image4.jpg","images"
4866,"computer","15",1059.90000000037,"7","image5.jpg","images"
4866,"computer","16",756.89999999851,"6","image14.jpg","images"
4866,"computer","17",745,"6","image17.jpg","images"
4866,"computer","18",530.099999999627,"3","image33.jpg","images"
4808,"computer","1",6998.40000009537,"2","image47.jpg","images"
4808,"computer","2",720.599999904633,"1","image15.jpg","images"
4808,"computer","3",1710.90000009537,"6","image39.jpg","images"
4808,"computer","4",891.5,"5","image14.jpg","images"
4808,"computer","5",1100.69999980927,"4","image10.jpg","images"
4808,"computer","6",877.700000286102,"5","image20.jpg","images"
4808,"computer","7",1126.60000038147,"6","image1.jpg","images"
4808,"computer","8",1898.30000019073,"3","image36.jpg","images"
4808,"computer","9",1889.69999980927,"6","image35.jpg","images"
4808,"computer","10",522.300000190735,"2","image12.jpg","images"
4808,"computer","11",969,"4","image17.jpg","images"
4808,"computer","12",526.799999713898,"5","image5.jpg","images"
4808,"computer","13",897.800000190735,"3","image34.jpg","images"
4808,"computer","14",1680.89999961853,"5","image2.jpg","images"
4808,"computer","15",537.699999809265,"3","image52.jpg","images"
4808,"computer","16",2152.09999990463,"4","image33.jpg","images"
4808,"computer","17",1015.09999990463,"3","image4.jpg","images"
4808,"computer","18",494.099999904633,"2","image3.jpg","images"
4811,"computer","1",5435.5,"2","image12.jpg","images"
4811,"computer","2",3851.09999996424,"7","image3.jpg","images"
4811,"computer","3",2129.30000001192,"5","image39.jpg","images"
4811,"computer","4",1758.90000003576,"2","image10.jpg","images"
4811,"computer","5",1674.5,"2","image4.jpg","images"
4811,"computer","6",1705,"3","image1.jpg","images"
4811,"computer","7",1854.60000002384,"5","image2.jpg","images"
4811,"computer","8",817.199999988079,"1","image34.jpg","images"
4811,"computer","9",2796.89999997616,"4","image52.jpg","images"
4811,"computer","10",1659.90000003576,"7","image17.jpg","images"
4811,"computer","11",4268.20000004768,"6","image20.jpg","images"
4811,"computer","12",1592.80000001192,"2","image15.jpg","images"
4811,"computer","13",1286.80000001192,"1","image47.jpg","images"
4811,"computer","14",1335.40000003576,"3","image35.jpg","images"
4811,"computer","15",1738.60000002384,"7","image5.jpg","images"
4811,"computer","16",1627.19999998808,"1","image36.jpg","images"
4811,"computer","17",1264.10000002384,"1","image33.jpg","images"
4811,"computer","18",2256.80000001192,"7","image14.jpg","images"
4809,"computer","1",2052.82500002068,"3","image2.jpg","images"
4809,"computer","2",1344.04500003438,"4","image14.jpg","images"
4809,"computer","3",1665.40499997791,"8","image10.jpg","images"
4809,"computer","4",870.020000031218,"9","image39.jpg","images"
4809,"computer","5",910.574999987148,"4","image34.jpg","images"
4809,"computer","6",1495.52500003483,"7","image52.jpg","images"
4809,"computer","7",1336.81500004604,"4","image35.jpg","images"
4809,"computer","8",858.460000017658,"6","image12.jpg","images"
4809,"computer","9",625.085000065155,"6","image1.jpg","images"
4809,"computer","10",1305.1399999531,"4","image47.jpg","images"
4809,"computer","11",550.860000075772,"4","image33.jpg","images"
4809,"computer","12",1153.81499996874,"5","image3.jpg","images"
4809,"computer","13",1919.36499997973,"8","image4.jpg","images"
4809,"computer","14",1060.04000001121,"8","image36.jpg","images"
4809,"computer","15",1659.78999994695,"1","image15.jpg","images"
4809,"computer","16",1420.75000004843,"3","image5.jpg","images"
4809,"computer","17",562.155000050552,"3","image17.jpg","images"
4809,"computer","18",1294.05499994755,"4","image20.jpg","images"
4890,"computer","1",5475.40000009537,"2","image17.jpg","images"
4890,"computer","2",972.699999928474,"1","image36.jpg","images"
4890,"computer","3",937.199999928474,"6","image20.jpg","images"
4890,"computer","4",657,"3","image3.jpg","images"
4890,"computer","5",749.299999952316,"1","image33.jpg","images"
4890,"computer","6",970.799999952316,"6","image2.jpg","images"
4890,"computer","7",665.299999952316,"2","image12.jpg","images"
4890,"computer","8",510.899999976158,"1","image15.jpg","images"
4890,"computer","9",688.900000095367,"2","image35.jpg","images"
4890,"computer","10",1052.69999992847,"3","image39.jpg","images"
4890,"computer","11",872,"5","image14.jpg","images"
4890,"computer","12",868.399999976158,"1","image34.jpg","images"
4890,"computer","13",718,"1","image1.jpg","images"
4890,"computer","14",577.100000023842,"1","image4.jpg","images"
4890,"computer","15",746.700000047684,"5","image5.jpg","images"
4890,"computer","16",1171.20000004768,"3","image52.jpg","images"
4890,"computer","17",875.899999976158,"1","image10.jpg","images"
4890,"computer","18",831.5,"1","image47.jpg","images"
4761,"computer","1",4913.09999999404,"2","image15.jpg","images"
4761,"computer","2",4101.69999998808,"7","image2.jpg","images"
4761,"computer","3",1065.40000000596,"2","image34.jpg","images"
4761,"computer","4",1003.19999998808,"3","image36.jpg","images"
4761,"computer","5",1241.5,"5","image4.jpg","images"
4761,"computer","6",4471.40000000596,"6","image20.jpg","images"
4761,"computer","7",1020.79999998212,"5","image3.jpg","images"
4761,"computer","8",1380.09999999404,"8","image39.jpg","images"
4761,"computer","9",1000.09999999404,"7","image5.jpg","images"
4761,"computer","10",2541.40000000596,"5","image10.jpg","images"
4761,"computer","11",894,"3","image47.jpg","images"
4761,"computer","12",905.600000023842,"2","image35.jpg","images"
4761,"computer","13",398.200000017881,"2","image33.jpg","images"
4761,"computer","14",392.5,"2","image1.jpg","images"
4761,"computer","15",1226.59999999404,"6","image52.jpg","images"
4761,"computer","16",913.300000011921,"7","image12.jpg","images"
4761,"computer","17",1353.39999997616,"6","image17.jpg","images"
4761,"computer","18",2370.59999999404,"7","image14.jpg","images"
4815,"computer","1",4925,"6","image5.jpg","images"
4815,"computer","2",1431,"6","image3.jpg","images"
4815,"computer","3",1300,"3","image35.jpg","images"
4815,"computer","4",1312,"6","image52.jpg","images"
4815,"computer","5",1175.99999999999,"8","image39.jpg","images"
4815,"computer","6",1917,"5","image47.jpg","images"
4815,"computer","7",1701,"4","image15.jpg","images"
4815,"computer","8",2496,"5","image2.jpg","images"
4815,"computer","9",1321,"9","image36.jpg","images"
4815,"computer","10",1085.99999999999,"4","image34.jpg","images"
4815,"computer","11",1203.99999999999,"4","image33.jpg","images"
4815,"computer","12",2621,"7","image12.jpg","images"
4815,"computer","13",2117.99999999999,"8","image4.jpg","images"
4815,"computer","14",1615,"6","image20.jpg","images"
4815,"computer","15",1471,"7","image14.jpg","images"
4815,"computer","16",1226,"8","image10.jpg","images"
4815,"computer","17",2218,"6","image17.jpg","images"
4815,"computer","18",943.999999999985,"5","image1.jpg","images"
4751,"computer","1",2451.5,"8","image5.jpg","images"
4751,"computer","2",1152.80000019073,"7","image17.jpg","images"
4751,"computer","3",1206.39999961853,"4","image35.jpg","images"
4751,"computer","4",1209.60000038147,"1","image1.jpg","images"
4751,"computer","5",937.400000095367,"5","image52.jpg","images"
4751,"computer","6",685.5,"8","image20.jpg","images"
4751,"computer","7",973.299999713898,"1","image10.jpg","images"
4751,"computer","8",851.300000190735,"8","image2.jpg","images"
4751,"computer","9",975.599999904633,"7","image39.jpg","images"
4751,"computer","10",506,"7","image3.jpg","images"
4751,"computer","11",803,"5","image47.jpg","images"
4751,"computer","12",711.200000286102,"1","image4.jpg","images"
4751,"computer","13",1338.30000019073,"7","image14.jpg","images"
4751,"computer","14",1277.69999980927,"3","image33.jpg","images"
4751,"computer","15",919.900000095367,"1","image15.jpg","images"
4751,"computer","16",798.900000095367,"2","image36.jpg","images"
4751,"computer","17",543,"2","image34.jpg","images"
4751,"computer","18",875.5,"2","image12.jpg","images"
4865,"computer","1",7034,"6","image17.jpg","images"
4865,"computer","2",3749,"2","image1.jpg","images"
4865,"computer","3",591,"5","image5.jpg","images"
4865,"computer","4",633,"4","image35.jpg","images"
4865,"computer","5",602,"6","image10.jpg","images"
4865,"computer","6",1215.99999999999,"3","image15.jpg","images"
4865,"computer","7",629,"6","image20.jpg","images"
4865,"computer","8",1926,"3","image4.jpg","images"
4865,"computer","9",636,"7","image47.jpg","images"
4865,"computer","10",730.999999999993,"8","image14.jpg","images"
4865,"computer","11",479,"9","image2.jpg","images"
4865,"computer","12",766.000000000007,"4","image33.jpg","images"
4865,"computer","13",1013.99999999999,"4","image12.jpg","images"
4865,"computer","14",860,"3","image36.jpg","images"
4865,"computer","15",2629.00000000001,"2","image3.jpg","images"
4865,"computer","16",3174,"5","image52.jpg","images"
4865,"computer","17",652,"2","image34.jpg","images"
4865,"computer","18",733.999999999985,"4","image39.jpg","images"
4866,"computer","1",2091.69999999925,"6","Cut_jazz_10.mp3","music"
4866,"computer","2",780.299999998882,"4","Classical_2.mp3","music"
4866,"computer","3",822.299999998882,"5","Classical_18.mp3","music"
4866,"computer","4",486.599999999627,"7","Classical_19.mp3","music"
4866,"computer","5",1202.30000000075,"2","foil.mp3","music"
4866,"computer","6",3460.19999999925,"4","Classical_8.mp3","music"
4866,"computer","7",552.800000000745,"6","Classical_4.mp3","music"
4866,"computer","8",705.5,"8","Cut_jazz_19.mp3","music"
4866,"computer","9",1027.40000000037,"7","Cut_jazz_5.mp3","music"
4866,"computer","10",425.599999999627,"8","Cut_jazz_2.mp3","music"
4866,"computer","11",662.599999999627,"6","Cut_jazz_1.mp3","music"
4866,"computer","12",1075.30000000075,"7","Cut_jazz_7.mp3","music"
4866,"computer","13",786.900000000373,"5","Classical_6.mp3","music"
4866,"computer","14",609.5,"6","Classical_1.mp3","music"
4866,"computer","15",917.700000001118,"8","Cut_jazz_14.mp3","music"
4866,"computer","16",708.200000001118,"6","Classical_15.mp3","music"
4866,"computer","17",595.300000000745,"5","Classical_17.mp3","music"
4866,"computer","18",555.60000000149,"7","Classical_7.mp3","music"
4866,"computer","19",1733.09999999963,"3","Cut_jazz_16.mp3","music"
4745,"computer","1",1256.79999995232,"7","Classical_15.mp3","music"
4745,"computer","2",737.899999976158,"9","Classical_17.mp3","music"
4745,"computer","3",921.300000071526,"2","Cut_jazz_10.mp3","music"
4745,"computer","4",1238.39999997616,"9","Classical_8.mp3","music"
4745,"computer","5",693.400000095367,"7","Cut_jazz_5.mp3","music"
4745,"computer","6",1293.10000002384,"2","foil.mp3","music"
4745,"computer","7",1552.39999997616,"5","Classical_6.mp3","music"
4745,"computer","8",778.100000023842,"8","Cut_jazz_2.mp3","music"
4745,"computer","9",923.300000071526,"6","Classical_2.mp3","music"
4745,"computer","10",1522.19999992847,"8","Classical_19.mp3","music"
4745,"computer","11",816.600000023842,"7","Cut_jazz_7.mp3","music"
4745,"computer","12",637.299999952316,"6","Classical_1.mp3","music"
4745,"computer","13",1123.70000004768,"8","Cut_jazz_14.mp3","music"
4745,"computer","14",1394.10000002384,"2","Cut_jazz_1.mp3","music"
4745,"computer","15",990.100000023842,"1","Classical_4.mp3","music"
4745,"computer","16",868.299999952316,"9","Classical_7.mp3","music"
4745,"computer","17",1154.09999990463,"7","Cut_jazz_16.mp3","music"
4745,"computer","18",823.100000023842,"8","Cut_jazz_19.mp3","music"
4745,"computer","19",684.699999928474,"9","Classical_18.mp3","music"
4830,"computer","1",1788.60000000149,"5","Classical_15.mp3","music"
4830,"computer","2",796.300000000745,"8","Classical_19.mp3","music"
4830,"computer","3",1024.89999999851,"3","Classical_18.mp3","music"
4830,"computer","4",955.89999999851,"2","foil.mp3","music"
4830,"computer","5",1104.90000000224,"2","Classical_4.mp3","music"
4830,"computer","6",2541,"4","Cut_jazz_16.mp3","music"
4830,"computer","7",1035.60000000149,"6","Classical_17.mp3","music"
4830,"computer","8",1512.10000000149,"7","Cut_jazz_7.mp3","music"
4830,"computer","9",973.699999999255,"1","Classical_6.mp3","music"
4830,"computer","10",945.5,"8","Cut_jazz_19.mp3","music"
4830,"computer","11",1154.39999999851,"1","Cut_jazz_10.mp3","music"
4830,"computer","12",801.5,"7","Classical_1.mp3","music"
4830,"computer","13",4158.39999999851,"5","Cut_jazz_1.mp3","music"
4830,"computer","14",1517.19999999925,"2","Cut_jazz_5.mp3","music"
4830,"computer","15",830.10000000149,"8","Cut_jazz_2.mp3","music"
4830,"computer","16",1131.5,"4","Classical_8.mp3","music"
4830,"computer","17",3710.40000000224,"7","Classical_7.mp3","music"
4830,"computer","18",1323.70000000298,"3","Classical_2.mp3","music"
4830,"computer","19",1039.80000000075,"5","Cut_jazz_14.mp3","music"
4787,"computer","1",1043,"1","Cut_jazz_10.mp3","music"
4787,"computer","2",1419,"1","Cut_jazz_5.mp3","music"
4787,"computer","3",1159,"2","Cut_jazz_2.mp3","music"
4787,"computer","4",1084,"2","Classical_18.mp3","music"
4787,"computer","5",781,"1","Cut_jazz_7.mp3","music"
4787,"computer","6",1315,"3","Cut_jazz_1.mp3","music"
4787,"computer","7",758,"4","Classical_1.mp3","music"
4787,"computer","8",1620,"1","foil.mp3","music"
4787,"computer","9",1539,"1","Cut_jazz_16.mp3","music"
4787,"computer","10",515,"1","Cut_jazz_19.mp3","music"
4787,"computer","11",2914,"5","Classical_17.mp3","music"
4787,"computer","12",1207,"3","Classical_4.mp3","music"
4787,"computer","13",1637,"2","Cut_jazz_14.mp3","music"
4787,"computer","14",1171,"2","Classical_8.mp3","music"
4787,"computer","15",1072,"2","Classical_7.mp3","music"
4787,"computer","16",931,"5","Classical_19.mp3","music"
4787,"computer","17",2864,"2","Classical_2.mp3","music"
4787,"computer","18",908,"4","Classical_15.mp3","music"
4787,"computer","19",495,"4","Classical_6.mp3","music"
4875,"computer","1",891.700000047684,"3","Classical_1.mp3","music"
4875,"computer","2",877,"7","Cut_jazz_7.mp3","music"
4875,"computer","3",1015.20000004768,"7","Cut_jazz_19.mp3","music"
4875,"computer","4",827.599999904633,"2","Classical_17.mp3","music"
4875,"computer","5",1372.5,"3","Classical_4.mp3","music"
4875,"computer","6",1634.5,"6","Cut_jazz_14.mp3","music"
4875,"computer","7",1558.70000004768,"7","Classical_19.mp3","music"
4875,"computer","8",1699.89999985695,"3","Cut_jazz_2.mp3","music"
4875,"computer","9",2257.60000014305,"3","Classical_15.mp3","music"
4875,"computer","10",1391.20000004768,"3","Cut_jazz_10.mp3","music"
4875,"computer","11",1681.09999990463,"3","Classical_6.mp3","music"
4875,"computer","12",2072.90000009537,"3","Classical_2.mp3","music"
4875,"computer","13",1602.20000004768,"2","Classical_8.mp3","music"
4875,"computer","14",2181,"7","Classical_18.mp3","music"
4875,"computer","15",1684,"3","Cut_jazz_1.mp3","music"
4875,"computer","16",2309,"2","foil.mp3","music"
4875,"computer","17",2962.29999995232,"7","Cut_jazz_16.mp3","music"
4875,"computer","18",2261.10000014305,"4","Cut_jazz_5.mp3","music"
4875,"computer","19",972.400000095367,"7","Classical_7.mp3","music"
4865,"computer","1",2408,"5","Cut_jazz_16.mp3","music"
4865,"computer","2",662,"7","Classical_7.mp3","music"
4865,"computer","3",636,"8","Cut_jazz_19.mp3","music"
4865,"computer","4",2438,"5","Classical_19.mp3","music"
4865,"computer","5",1939,"2","Classical_15.mp3","music"
4865,"computer","6",755,"6","Cut_jazz_7.mp3","music"
4865,"computer","7",1144,"2","Cut_jazz_10.mp3","music"
4865,"computer","8",979,"4","Classical_18.mp3","music"
4865,"computer","9",509,"3","Classical_4.mp3","music"
4865,"computer","10",997,"2","Cut_jazz_1.mp3","music"
4865,"computer","11",2652.00000000001,"5","Cut_jazz_2.mp3","music"
4865,"computer","12",2441,"2","Cut_jazz_5.mp3","music"
4865,"computer","13",2180,"6","Classical_6.mp3","music"
4865,"computer","14",580,"9","Classical_1.mp3","music"
4865,"computer","15",5742,"7","foil.mp3","music"
4865,"computer","16",3827,"6","Classical_2.mp3","music"
4865,"computer","17",4028,"5","Classical_8.mp3","music"
4865,"computer","18",3099,"4","Classical_17.mp3","music"
4865,"computer","19",713,"7","Cut_jazz_14.mp3","music"
4896,"computer","1",2666,"2","foil.mp3","music"
4896,"computer","2",772,"7","Cut_jazz_10.mp3","music"
4896,"computer","3",635,"8","Cut_jazz_14.mp3","music"
4896,"computer","4",512.000000000004,"5","Cut_jazz_19.mp3","music"
4896,"computer","5",658,"3","Classical_2.mp3","music"
4896,"computer","6",757,"1","Classical_4.mp3","music"
4896,"computer","7",1136,"8","Cut_jazz_7.mp3","music"
4896,"computer","8",852,"4","Classical_18.mp3","music"
4896,"computer","9",654,"8","Cut_jazz_16.mp3","music"
4896,"computer","10",701,"1","Cut_jazz_5.mp3","music"
4896,"computer","11",910,"4","Classical_17.mp3","music"
4896,"computer","12",960,"8","Classical_8.mp3","music"
4896,"computer","13",1395,"6","Classical_15.mp3","music"
4896,"computer","14",487,"8","Classical_7.mp3","music"
4896,"computer","15",619,"7","Classical_1.mp3","music"
4896,"computer","16",1054,"9","Cut_jazz_2.mp3","music"
4896,"computer","17",1421.99999999999,"7","Classical_19.mp3","music"
4896,"computer","18",983,"5","Classical_6.mp3","music"
4896,"computer","19",852,"6","Cut_jazz_1.mp3","music"
4899,"computer","1",1222.10000014305,"8","Cut_jazz_2.mp3","music"
4899,"computer","2",1853,"4","Classical_1.mp3","music"
4899,"computer","3",1583.29999995232,"2","foil.mp3","music"
4899,"computer","4",1375.09999990463,"9","Classical_19.mp3","music"
4899,"computer","5",2626.69999980927,"5","Classical_6.mp3","music"
4899,"computer","6",1645.89999985695,"6","Cut_jazz_1.mp3","music"
4899,"computer","7",2019.39999985695,"3","Classical_18.mp3","music"
4899,"computer","8",1828.09999990463,"9","Classical_7.mp3","music"
4899,"computer","9",2596.40000009537,"4","Cut_jazz_5.mp3","music"
4899,"computer","10",1819,"1","Cut_jazz_16.mp3","music"
4899,"computer","11",1152,"3","Cut_jazz_7.mp3","music"
4899,"computer","12",954.5,"3","Cut_jazz_19.mp3","music"
4899,"computer","13",1614.19999980927,"2","Classical_2.mp3","music"
4899,"computer","14",1839.70000004768,"3","Classical_4.mp3","music"
4899,"computer","15",2678.09999990463,"3","Cut_jazz_10.mp3","music"
4899,"computer","16",1391,"6","Classical_15.mp3","music"
4899,"computer","17",558.399999856949,"7","Classical_8.mp3","music"
4899,"computer","18",3034.40000009537,"2","Classical_17.mp3","music"
4899,"computer","19",656.299999952316,"4","Cut_jazz_14.mp3","music"
4898,"computer","1",1530.29999998212,"4","Classical_4.mp3","music"
4898,"computer","2",822.399999976158,"6","Cut_jazz_1.mp3","music"
4898,"computer","3",1205,"5","Classical_18.mp3","music"
4898,"computer","4",896.5,"6","Cut_jazz_16.mp3","music"
4898,"computer","5",908.800000011921,"3","Cut_jazz_19.mp3","music"
4898,"computer","6",953.800000011921,"4","Cut_jazz_7.mp3","music"
4898,"computer","7",1313.10000002384,"2","Cut_jazz_10.mp3","music"
4898,"computer","8",1080.69999998808,"3","Classical_2.mp3","music"
4898,"computer","9",456.300000011921,"3","Classical_19.mp3","music"
4898,"computer","10",594.90000000596,"3","Classical_6.mp3","music"
4898,"computer","11",1337.79999998212,"4","Classical_7.mp3","music"
4898,"computer","12",529.09999999404,"3","Classical_17.mp3","music"
4898,"computer","13",1240.30000001192,"2","Cut_jazz_5.mp3","music"
4898,"computer","14",943.59999999404,"5","Classical_1.mp3","music"
4898,"computer","15",1796.5,"5","Cut_jazz_14.mp3","music"
4898,"computer","16",2214.40000000596,"4","Classical_15.mp3","music"
4898,"computer","17",646.59999999404,"4","Classical_8.mp3","music"
4898,"computer","18",819.5,"3","Cut_jazz_2.mp3","music"
4898,"computer","19",1809.59999999404,"2","foil.mp3","music"
4892,"computer","1",1146.60000002384,"8","Cut_jazz_7.mp3","music"
4892,"computer","2",954.5,"3","Classical_15.mp3","music"
4892,"computer","3",880.100000023842,"4","Cut_jazz_16.mp3","music"
4892,"computer","4",465.899999976158,"6","Classical_1.mp3","music"
4892,"computer","5",873.5,"1","Cut_jazz_1.mp3","music"
4892,"computer","6",1398.20000004768,"7","Cut_jazz_2.mp3","music"
4892,"computer","7",501.200000047684,"9","Cut_jazz_14.mp3","music"
4892,"computer","8",2008.70000004768,"6","Cut_jazz_5.mp3","music"
4892,"computer","9",1503,"7","Classical_19.mp3","music"
4892,"computer","10",929.700000047684,"8","Classical_4.mp3","music"
4892,"computer","11",1071.5,"6","Classical_18.mp3","music"
4892,"computer","12",985.299999952316,"2","Classical_2.mp3","music"
4892,"computer","13",469.600000023842,"2","Cut_jazz_10.mp3","music"
4892,"computer","14",2939.79999995232,"6","Classical_7.mp3","music"
4892,"computer","15",779.199999928474,"9","Cut_jazz_19.mp3","music"
4892,"computer","16",1469.20000004768,"1","Classical_17.mp3","music"
4892,"computer","17",457.5,"5","Classical_8.mp3","music"
4892,"computer","18",4032.5,"2","foil.mp3","music"
4892,"computer","19",3037.80000007153,"5","Classical_6.mp3","music"
4856,"computer","1",1961.80000000447,"6","Classical_19.mp3","music"
4856,"computer","2",1002.70000000298,"5","Cut_jazz_19.mp3","music"
4856,"computer","3",857.39999999851,"6","Classical_8.mp3","music"
4856,"computer","4",920.20000000298,"5","Cut_jazz_7.mp3","music"
4856,"computer","5",646,"8","Classical_6.mp3","music"
4856,"computer","6",391.60000000149,"8","Cut_jazz_14.mp3","music"
4856,"computer","7",697.10000000149,"2","Cut_jazz_5.mp3","music"
4856,"computer","6",1789,"8","Cut_jazz_14.mp3","music"
4856,"computer","7",790,"2","Cut_jazz_5.mp3","music"
4856,"computer","8",846.30000000447,"2","foil.mp3","music"
4856,"computer","9",1205.29999999702,"6","Cut_jazz_2.mp3","music"
4856,"computer","10",774.59999999404,"2","Cut_jazz_10.mp3","music"
4856,"computer","11",419.59999999404,"8","Classical_4.mp3","music"
4856,"computer","12",423.20000000298,"9","Classical_15.mp3","music"
4856,"computer","13",387.90000000596,"8","Classical_1.mp3","music"
4856,"computer","14",654,"7","Classical_17.mp3","music"
4856,"computer","15",365,"6","Cut_jazz_16.mp3","music"
4856,"computer","16",437.79999999702,"5","Cut_jazz_1.mp3","music"
4856,"computer","17",650.39999999851,"7","Classical_7.mp3","music"
4856,"computer","18",509.29999999702,"6","Classical_18.mp3","music"
4856,"computer","19",389.20000000298,"8","Classical_2.mp3","music"
4844,"computer","1",3842.19999980927,"4","Classical_17.mp3","music"
4844,"computer","2",1477.5,"5","Classical_7.mp3","music"
4844,"computer","3",583.10000038147,"4","Cut_jazz_16.mp3","music"
4844,"computer","4",651.10000038147,"4","Cut_jazz_10.mp3","music"
4844,"computer","5",15130.8999996185,"5","Classical_15.mp3","music"
4844,"computer","6",1657.60000038147,"7","Classical_1.mp3","music"
4844,"computer","7",2285.9000005722,"4","Cut_jazz_19.mp3","music"
4844,"computer","8",1202.80000019073,"5","Cut_jazz_7.mp3","music"
4844,"computer","9",1279.80000019073,"2","foil.mp3","music"
4844,"computer","10",25274.8000001907,"5","Classical_2.mp3","music"
4844,"computer","11",1860.69999980927,"5","Classical_8.mp3","music"
4844,"computer","12",1025.5,"6","Cut_jazz_2.mp3","music"
4844,"computer","13",15732.9000005722,"4","Classical_6.mp3","music"
4844,"computer","14",1270.89999961853,"7","Cut_jazz_1.mp3","music"
4844,"computer","15",1467.29999923706,"8","Classical_19.mp3","music"
4844,"computer","16",2249.9000005722,"6","Classical_4.mp3","music"
4844,"computer","17",1169.5,"4","Cut_jazz_5.mp3","music"
4844,"computer","18",2153,"3","Classical_18.mp3","music"
4844,"computer","19",1575.39999961853,"5","Cut_jazz_14.mp3","music"
4798,"computer","1",1001.89999997616,"3","Cut_jazz_19.mp3","music"
4798,"computer","2",747.700000047684,"4","Cut_jazz_14.mp3","music"
4798,"computer","3",3274.29999995232,"5","Classical_2.mp3","music"
4798,"computer","4",785.299999952316,"2","Classical_18.mp3","music"
4798,"computer","5",2974.80000007153,"3","Cut_jazz_10.mp3","music"
4798,"computer","6",1073.79999995232,"6","Classical_1.mp3","music"
4798,"computer","7",1300.39999997616,"7","Classical_6.mp3","music"
4798,"computer","8",1687.59999990463,"4","Classical_19.mp3","music"
4798,"computer","9",1524.10000002384,"5","Classical_7.mp3","music"
4798,"computer","10",1637.89999997616,"7","Classical_15.mp3","music"
4798,"computer","11",922.300000071526,"6","Cut_jazz_7.mp3","music"
4798,"computer","12",904.5,"6","Cut_jazz_2.mp3","music"
4798,"computer","13",1663.20000004768,"5","Cut_jazz_1.mp3","music"
4798,"computer","14",1777.60000002384,"8","Classical_8.mp3","music"
4798,"computer","15",1682.5,"8","Cut_jazz_16.mp3","music"
4798,"computer","16",1051.89999997616,"1","Cut_jazz_5.mp3","music"
4798,"computer","17",2594.60000002384,"3","foil.mp3","music"
4798,"computer","18",1057,"8","Classical_4.mp3","music"
4798,"computer","19",2584.20000004768,"6","Classical_17.mp3","music"
4750,"computer","1",1853,"3","Classical_6.mp3","music"
4750,"computer","2",848.5,"8","Cut_jazz_7.mp3","music"
4750,"computer","3",604.900000035763,"8","Cut_jazz_14.mp3","music"
4750,"computer","4",891.199999988079,"7","Cut_jazz_1.mp3","music"
4750,"computer","5",1481.09999996424,"2","Classical_2.mp3","music"
4750,"computer","6",1304.19999998808,"4","Classical_17.mp3","music"
4750,"computer","7",425,"2","Classical_18.mp3","music"
4750,"computer","8",1188.59999996424,"2","foil.mp3","music"
4750,"computer","9",5071.89999997616,"3","Classical_8.mp3","music"
4750,"computer","10",722,"5","Classical_1.mp3","music"
4750,"computer","11",1487.20000004768,"3","Classical_4.mp3","music"
4750,"computer","12",1519.59999996424,"5","Cut_jazz_16.mp3","music"
4750,"computer","13",1251.89999997616,"5","Cut_jazz_5.mp3","music"
4750,"computer","14",546.199999988079,"8","Cut_jazz_10.mp3","music"
4750,"computer","15",439.600000023842,"9","Classical_7.mp3","music"
4750,"computer","16",361.400000035763,"9","Classical_19.mp3","music"
4750,"computer","17",434.399999976158,"9","Cut_jazz_2.mp3","music"
4750,"computer","18",5688.79999995232,"7","Classical_15.mp3","music"
4750,"computer","19",816.099999964237,"8","Cut_jazz_19.mp3","music"
4808,"computer","1",4175.40000009537,"2","Classical_18.mp3","music"
4808,"computer","2",3480.69999980927,"2","Classical_8.mp3","music"
4808,"computer","3",753.099999904633,"1","Classical_1.mp3","music"
4808,"computer","4",1978.19999980927,"6","Classical_19.mp3","music"
4808,"computer","5",2030.30000019073,"6","Cut_jazz_7.mp3","music"
4808,"computer","6",1096.40000009537,"1","Classical_6.mp3","music"
4808,"computer","7",6803,"2","Classical_15.mp3","music"
4808,"computer","8",1260.80000019073,"7","Cut_jazz_1.mp3","music"
4808,"computer","9",1435.10000038147,"3","Cut_jazz_2.mp3","music"
4808,"computer","10",2321.10000038147,"3","Cut_jazz_19.mp3","music"
4808,"computer","11",2330.90000009537,"5","Cut_jazz_16.mp3","music"
4808,"computer","12",1494.40000009537,"1","Classical_17.mp3","music"
4808,"computer","13",1793.30000019073,"1","Classical_2.mp3","music"
4808,"computer","14",978.699999809265,"6","Cut_jazz_14.mp3","music"
4808,"computer","15",1002.69999980927,"1","Classical_4.mp3","music"
4808,"computer","16",2845.59999990463,"6","Cut_jazz_10.mp3","music"
4808,"computer","17",1211.09999990463,"8","Classical_7.mp3","music"
4808,"computer","18",2758.09999990463,"3","Cut_jazz_5.mp3","music"
4808,"computer","19",1027.09999990463,"2","foil.mp3","music"
4811,"computer","1",1833.89999997616,"3","Classical_17.mp3","music"
4811,"computer","2",1087.5,"1","Cut_jazz_5.mp3","music"
4811,"computer","3",1746.89999997616,"6","Cut_jazz_19.mp3","music"
4811,"computer","4",1367.09999996424,"4","Cut_jazz_10.mp3","music"
4811,"computer","5",1288.39999997616,"8","Classical_6.mp3","music"
4811,"computer","6",1704.30000001192,"5","Cut_jazz_16.mp3","music"
4811,"computer","7",3261.39999997616,"8","Classical_2.mp3","music"
4811,"computer","8",1964.69999998808,"1","Classical_4.mp3","music"
4811,"computer","9",1900.19999998808,"7","Classical_15.mp3","music"
4811,"computer","10",1960.5,"8","Classical_1.mp3","music"
4811,"computer","11",1364.70000004768,"5","Cut_jazz_2.mp3","music"
4811,"computer","12",1838.89999997616,"1","Cut_jazz_1.mp3","music"
4811,"computer","13",1911.59999996424,"7","Classical_7.mp3","music"
4811,"computer","14",10282.1999999881,"2","foil.mp3","music"
4811,"computer","15",5373.39999997616,"5","Cut_jazz_7.mp3","music"
4811,"computer","16",2715,"6","Cut_jazz_14.mp3","music"
4811,"computer","17",2246.39999997616,"7","Classical_18.mp3","music"
4811,"computer","18",2582.69999998808,"8","Classical_8.mp3","music"
4811,"computer","19",1570.59999996424,"6","Classical_19.mp3","music"
4809,"computer","1",1573.6100000795,"4","Classical_4.mp3","music"
4809,"computer","2",1272.33499998692,"6","Cut_jazz_7.mp3","music"
4809,"computer","3",2756.0999999987,"2","foil.mp3","music"
4809,"computer","4",2637.4599999981,"4","Classical_15.mp3","music"
4809,"computer","5",1486.39500001445,"6","Classical_17.mp3","music"
4809,"computer","6",1422.93000000063,"8","Cut_jazz_19.mp3","music"
4809,"computer","7",725.469999946654,"8","Cut_jazz_14.mp3","music"
4809,"computer","8",1163.62999996636,"3","Classical_2.mp3","music"
4809,"computer","9",1826.75000000745,"5","Cut_jazz_1.mp3","music"
4809,"computer","10",1208.69999995921,"7","Classical_8.mp3","music"
4809,"computer","11",770.179999992251,"9","Cut_jazz_16.mp3","music"
4809,"computer","12",972.990000038408,"6","Classical_6.mp3","music"
4809,"computer","13",922.404999961145,"6","Classical_19.mp3","music"
4809,"computer","14",1981.35999997612,"5","Cut_jazz_5.mp3","music"
4809,"computer","15",967.539999983273,"5","Classical_18.mp3","music"
4809,"computer","16",912.284999969415,"2","Cut_jazz_10.mp3","music"
4809,"computer","17",1395.66499995999,"8","Classical_7.mp3","music"
4809,"computer","18",1856.6400000127,"8","Classical_1.mp3","music"
4809,"computer","19",1014.03500000015,"6","Cut_jazz_2.mp3","music"
4890,"computer","1",1582.20000004768,"3","Classical_19.mp3","music"
4890,"computer","2",1647.39999997616,"4","Classical_6.mp3","music"
4890,"computer","3",494.699999928474,"5","Classical_1.mp3","music"
4890,"computer","4",770.5,"2","Classical_7.mp3","music"
4890,"computer","5",830.100000023842,"1","Classical_4.mp3","music"
4890,"computer","6",579.5,"5","Cut_jazz_2.mp3","music"
4890,"computer","7",1340.5,"1","Cut_jazz_19.mp3","music"
4890,"computer","8",1445.89999997616,"3","Classical_2.mp3","music"
4890,"computer","9",775.100000023842,"2","Classical_18.mp3","music"
4890,"computer","10",844.199999928474,"3","Classical_17.mp3","music"
4890,"computer","11",1333.09999990463,"2","Cut_jazz_1.mp3","music"
4890,"computer","12",648.799999952316,"1","Cut_jazz_5.mp3","music"
4890,"computer","13",712.100000023842,"2","Cut_jazz_10.mp3","music"
4890,"computer","14",4230.10000002384,"4","Classical_15.mp3","music"
4890,"computer","15",1012.89999997616,"7","Cut_jazz_14.mp3","music"
4890,"computer","16",895.699999928474,"2","Classical_8.mp3","music"
4890,"computer","17",936.899999976158,"3","Cut_jazz_16.mp3","music"
4890,"computer","18",850,"5","Cut_jazz_7.mp3","music"
4890,"computer","19",1939.89999997616,"2","foil.mp3","music"
4761,"computer","1",2540.29999998212,"4","Classical_15.mp3","music"
4761,"computer","2",2030.40000000596,"3","Cut_jazz_1.mp3","music"
4761,"computer","3",1296.5,"6","Classical_7.mp3","music"
4761,"computer","4",1108.29999998212,"4","Classical_6.mp3","music"
4761,"computer","5",1393.69999998808,"6","Classical_18.mp3","music"
4761,"computer","6",3915.39999997616,"6","Cut_jazz_14.mp3","music"
4761,"computer","7",1750.5,"2","Cut_jazz_16.mp3","music"
4761,"computer","8",1799.20000001788,"5","Classical_2.mp3","music"
4761,"computer","9",934.800000011921,"3","Cut_jazz_2.mp3","music"
4761,"computer","10",1601.5,"2","Cut_jazz_10.mp3","music"
4761,"computer","11",1606.10000002384,"2","foil.mp3","music"
4761,"computer","12",1245.5,"6","Classical_19.mp3","music"
4761,"computer","13",2606.30000001192,"4","Classical_17.mp3","music"
4761,"computer","14",2020.59999999404,"8","Classical_1.mp3","music"
4761,"computer","15",1411.90000000596,"5","Cut_jazz_19.mp3","music"
4761,"computer","16",1523,"5","Cut_jazz_7.mp3","music"
4761,"computer","17",970.5,"4","Cut_jazz_5.mp3","music"
4761,"computer","18",919,"3","Classical_4.mp3","music"
4761,"computer","19",1308.40000000596,"9","Classical_8.mp3","music"
4815,"computer","1",3266,"5","Classical_2.mp3","music"
4815,"computer","2",2772,"8","Cut_jazz_1.mp3","music"
4815,"computer","3",1234,"7","Cut_jazz_16.mp3","music"
4815,"computer","4",2365,"2","foil.mp3","music"
4815,"computer","5",4281,"4","Classical_4.mp3","music"
4815,"computer","6",5259,"6","Cut_jazz_7.mp3","music"
4815,"computer","7",3931,"7","Classical_19.mp3","music"
4815,"computer","8",879,"9","Cut_jazz_10.mp3","music"
4815,"computer","9",2769.99999999999,"6","Classical_6.mp3","music"
4815,"computer","10",664.999999999993,"9","Cut_jazz_14.mp3","music"
4815,"computer","11",899,"9","Classical_8.mp3","music"
4815,"computer","12",7005,"8","Classical_18.mp3","music"
4815,"computer","13",1694,"4","Cut_jazz_5.mp3","music"
4815,"computer","14",1328,"6","Classical_1.mp3","music"
4815,"computer","15",1439,"5","Cut_jazz_2.mp3","music"
4815,"computer","16",5801,"5","Classical_15.mp3","music"
4815,"computer","17",1786,"6","Classical_17.mp3","music"
4815,"computer","18",632,"6","Classical_7.mp3","music"
4815,"computer","19",783.999999999985,"5","Cut_jazz_19.mp3","music"
4751,"computer","1",1281.69999980927,"7","Classical_17.mp3","music"
4751,"computer","2",1235.2000002861,"9","Classical_19.mp3","music"
4751,"computer","3",1233.7999997139,"2","foil.mp3","music"
4751,"computer","4",1476.7000002861,"4","Classical_4.mp3","music"
4751,"computer","5",1063.40000009537,"7","Cut_jazz_1.mp3","music"
4751,"computer","6",965.300000190735,"9","Cut_jazz_19.mp3","music"
4751,"computer","7",1187,"5","Classical_8.mp3","music"
4751,"computer","8",970.299999713898,"9","Cut_jazz_7.mp3","music"
4751,"computer","9",1203.09999990463,"3","Cut_jazz_2.mp3","music"
4751,"computer","10",1209.90000009537,"6","Classical_1.mp3","music"
4751,"computer","11",1414.40000009537,"9","Cut_jazz_14.mp3","music"
4751,"computer","12",1779.90000009537,"5","Classical_6.mp3","music"
4751,"computer","13",1175.09999990463,"5","Classical_2.mp3","music"
4751,"computer","14",1824.69999980927,"4","Cut_jazz_16.mp3","music"
4751,"computer","15",1216.5,"2","Cut_jazz_5.mp3","music"
4751,"computer","16",1021.09999990463,"4","Classical_7.mp3","music"
4751,"computer","17",1052.5,"4","Classical_18.mp3","music"
4751,"computer","18",1500.2999997139,"6","Cut_jazz_10.mp3","music"
4751,"computer","19",689.5,"6","Classical_15.mp3","music"
