"Prolific_ID","Participant.Device.Type","Trial.Number","Reaction.Time","Response","display","ImageStim","MusicStim","StimCued"
4801,"computer","4",440,"3","Post","image34.jpg","Classical_1.mp3","Image"
4801,"computer","5",1052,"5","Post","image17.jpg","Classical_18.mp3","Image"
4801,"computer","6",1023,"2","Post","image35.jpg","Classical_4.mp3","Image"
4801,"computer","7",891,"4","Post","image52.jpg","Cut_jazz_5.mp3","Both"
4801,"computer","8",500,"3","Post","image4.jpg","Cut_jazz_1.mp3","Music"
4801,"computer","9",869,"2","Post","image20.jpg","Classical_6.mp3","Image"
4801,"computer","10",420,"7","Post","image12.jpg","Cut_jazz_16.mp3","Music"
4801,"computer","11",84,"7","Post","image4.jpg","Classical_19.mp3","Both"
4801,"computer","12",959,"5","Post","image2.jpg","Classical_8.mp3","Both"
4801,"computer","13",509,"6","Post","image14.jpg","Classical_18.mp3","Both"
4801,"computer","14",459,"8","Post","image1.jpg","Cut_jazz_16.mp3","Image"
4801,"computer","15",468,"8","Post","image5.jpg","Cut_jazz_10.mp3","Music"
4801,"computer","16",997,"9","Post","image36.jpg","Cut_jazz_2.mp3","Both"
4801,"computer","17",57,"6","Post","image14.jpg","Classical_15.mp3","Music"
4801,"computer","18",927,"6","Post","image10.jpg","Cut_jazz_16.mp3","Both"
4801,"computer","19",883,"7","Post","image20.jpg","Classical_8.mp3","Music"
4801,"computer","20",992,"5","Post","image33.jpg","Classical_1.mp3","Music"
4801,"computer","21",81,"7","Post","image14.jpg","Classical_17.mp3","Image"
4801,"computer","22",880,"6","Post","image35.jpg","Classical_2.mp3","Music"
4801,"computer","23",948,"8","Post","image39.jpg","Cut_jazz_1.mp3","Both"
4801,"computer","24",890,"4","Post","image15.jpg","Classical_15.mp3","Image"
4801,"computer","25",995,"9","Post","image12.jpg","Cut_jazz_14.mp3","Both"
4801,"computer","26",51,"8","Post","image36.jpg","Classical_19.mp3","Music"
4801,"computer","27",945,"4","Post","image3.jpg","Classical_7.mp3","Music"
4801,"computer","28",1012,"5","Post","image17.jpg","Classical_17.mp3","Music"
4801,"computer","29",82,"9","Post","image34.jpg","Classical_4.mp3","Music"
4801,"computer","30",878,"4","Post","image15.jpg","Classical_18.mp3","Music"
4801,"computer","31",1026,"9","Post","image12.jpg","Cut_jazz_19.mp3","Image"
4801,"computer","32",65,"6","Post","image2.jpg","Classical_6.mp3","Music"
4801,"computer","33",411,"7","Post","image3.jpg","Classical_8.mp3","Image"
4801,"computer","34",1015,"3","Post","image52.jpg","Cut_jazz_7.mp3","Music"
4801,"computer","35",71,"4","Post","image10.jpg","Cut_jazz_14.mp3","Image"
4801,"computer","36",935,"6","Post","image35.jpg","Classical_1.mp3","Both"
4801,"computer","37",1032,"7","Post","image1.jpg","Cut_jazz_14.mp3","Music"
4801,"computer","38",918,"3","Post","image2.jpg","Classical_7.mp3","Image"
4801,"computer","39",1001,"8","Post","image39.jpg","Classical_19.mp3","Image"
4801,"computer","40",983,"6","Post","image47.jpg","Cut_jazz_7.mp3","Image"
4801,"computer","41",403,"7","Post","image39.jpg","Cut_jazz_2.mp3","Music"
4801,"computer","42",399,"2","Post","image3.jpg","Classical_6.mp3","Both"
4801,"computer","43",1042,"4","Post","image52.jpg","Cut_jazz_10.mp3","Image"
4801,"computer","44",74,"6","Post","image33.jpg","Classical_4.mp3","Both"
4801,"computer","45",854,"5","Post","image10.jpg","Cut_jazz_19.mp3","Music"
4801,"computer","46",1050,"6","Post","image5.jpg","Cut_jazz_7.mp3","Both"
4801,"computer","47",1044,"5","Post","image1.jpg","Cut_jazz_19.mp3","Both"
4801,"computer","48",1010,"3","Post","image15.jpg","Classical_17.mp3","Both"
4801,"computer","49",872,"5","Post","image47.jpg","Cut_jazz_10.mp3","Both"
4801,"computer","50",451,"5","Post","image20.jpg","Classical_7.mp3","Both"
4801,"computer","51",441,"2","Post","image47.jpg","Cut_jazz_5.mp3","Music"
4801,"computer","52",933,"7","Post","image34.jpg","Classical_2.mp3","Both"
4801,"computer","53",853,"4","Post","image17.jpg","Classical_15.mp3","Both"
4801,"computer","54",400,"6","Post","image33.jpg","Classical_2.mp3","Image"
4801,"computer","55",950,"3","Post","image4.jpg","Cut_jazz_2.mp3","Image"
4801,"computer","56",901,"7","Post","image5.jpg","Cut_jazz_5.mp3","Image"
4801,"computer","57",1024,"6","Post","image36.jpg","Cut_jazz_1.mp3","Image"
4801,"computer","4",1009,"4","Pre","image14.jpg","Cut_jazz_19.mp3","Both"
4801,"computer","5",985,"5","Pre","image17.jpg","Cut_jazz_14.mp3","Both"
4801,"computer","6",982,"3","Pre","image35.jpg","Classical_7.mp3","Music"
4801,"computer","7",885,"4","Pre","image1.jpg","Cut_jazz_1.mp3","Image"
4801,"computer","8",999,"2","Pre","image47.jpg","Classical_1.mp3","Music"
4801,"computer","9",424,"6","Pre","image2.jpg","Classical_17.mp3","Image"
4801,"computer","10",443,"9","Pre","image39.jpg","Cut_jazz_10.mp3","Music"
4801,"computer","11",900,"3","Pre","image20.jpg","Classical_18.mp3","Music"
4801,"computer","12",903,"5","Pre","image1.jpg","Classical_19.mp3","Music"
4801,"computer","13",457,"1","Pre","image4.jpg","Cut_jazz_10.mp3","Image"
4801,"computer","14",54,"1","Pre","image15.jpg","Cut_jazz_16.mp3","Both"
4801,"computer","15",899,"4","Pre","image5.jpg","Classical_1.mp3","Image"
4801,"computer","16",939,"4","Pre","image33.jpg","Classical_8.mp3","Both"
4801,"computer","17",66,"7","Pre","image36.jpg","Cut_jazz_10.mp3","Both"
4801,"computer","18",895,"7","Pre","image3.jpg","Classical_18.mp3","Image"
4801,"computer","19",921,"3","Pre","image33.jpg","Classical_7.mp3","Image"
4801,"computer","20",488,"1","Pre","image1.jpg","Cut_jazz_2.mp3","Both"
4801,"computer","21",871,"2","Pre","image4.jpg","Cut_jazz_7.mp3","Music"
4801,"computer","22",1017,"7","Pre","image20.jpg","Classical_17.mp3","Both"
4801,"computer","23",868,"3","Pre","image17.jpg","Cut_jazz_16.mp3","Music"
4801,"computer","24",914,"5","Pre","image20.jpg","Classical_15.mp3","Image"
4801,"computer","25",840,"7","Pre","image14.jpg","Cut_jazz_14.mp3","Music"
4801,"computer","26",898,"6","Pre","image2.jpg","Classical_15.mp3","Music"
4801,"computer","27",458,"1","Pre","image36.jpg","Cut_jazz_7.mp3","Image"
4801,"computer","28",435,"8","Pre","image14.jpg","Cut_jazz_16.mp3","Image"
4801,"computer","29",416,"6","Pre","image33.jpg","Classical_6.mp3","Music"
4801,"computer","30",1027,"1","Pre","image5.jpg","Classical_4.mp3","Music"
4801,"computer","31",1036,"1","Pre","image17.jpg","Cut_jazz_19.mp3","Image"
4801,"computer","32",1039,"5","Pre","image2.jpg","Classical_18.mp3","Both"
4801,"computer","33",492,"4","Pre","image52.jpg","Classical_4.mp3","Image"
4801,"computer","34",61,"6","Pre","image10.jpg","Cut_jazz_1.mp3","Both"
4801,"computer","35",1035,"9","Pre","image12.jpg","Classical_19.mp3","Both"
4801,"computer","36",857,"3","Pre","image35.jpg","Classical_8.mp3","Image"
4801,"computer","37",449,"5","Pre","image10.jpg","Cut_jazz_2.mp3","Music"
4801,"computer","38",842,"6","Pre","image3.jpg","Classical_17.mp3","Music"
4801,"computer","39",453,"4","Pre","image47.jpg","Classical_2.mp3","Image"
4801,"computer","40",464,"5","Pre","image35.jpg","Classical_6.mp3","Both"
4801,"computer","41",976,"6","Pre","image5.jpg","Classical_2.mp3","Both"
4801,"computer","42",455,"2","Pre","image15.jpg","Cut_jazz_19.mp3","Music"
4801,"computer","43",1025,"9","Pre","image39.jpg","Cut_jazz_7.mp3","Both"
4801,"computer","44",954,"2","Pre","image4.jpg","Cut_jazz_5.mp3","Both"
4801,"computer","45",474,"3","Pre","image47.jpg","Classical_4.mp3","Both"
4801,"computer","46",501,"6","Pre","image3.jpg","Classical_15.mp3","Both"
4801,"computer","47",1020,"9","Pre","image12.jpg","Cut_jazz_2.mp3","Image"
4801,"computer","48",973,"3","Pre","image36.jpg","Cut_jazz_5.mp3","Music"
4801,"computer","49",465,"4","Pre","image10.jpg","Classical_19.mp3","Image"
4801,"computer","50",489,"7","Pre","image34.jpg","Classical_7.mp3","Both"
4801,"computer","51",493,"3","Pre","image52.jpg","Classical_1.mp3","Both"
4801,"computer","52",1048,"9","Pre","image39.jpg","Cut_jazz_5.mp3","Image"
4801,"computer","53",876,"1","Pre","image52.jpg","Classical_2.mp3","Music"
4801,"computer","54",843,"5","Pre","image34.jpg","Classical_8.mp3","Music"
4801,"computer","55",929,"7","Pre","image12.jpg","Cut_jazz_1.mp3","Music"
4801,"computer","56",1007,"8","Pre","image34.jpg","Classical_6.mp3","Image"
4801,"computer","57",60,"1","Pre","image15.jpg","Cut_jazz_14.mp3","Image"
4798,"computer","4",502,"3","Post","image34.jpg","Classical_1.mp3","Image"
4798,"computer","5",467,"7","Post","image17.jpg","Classical_18.mp3","Image"
4798,"computer","6",454,"2","Post","image35.jpg","Classical_4.mp3","Image"
4798,"computer","7",944,"3","Post","image52.jpg","Cut_jazz_5.mp3","Both"
4798,"computer","8",856,"1","Post","image4.jpg","Cut_jazz_1.mp3","Music"
4798,"computer","9",426,"6","Post","image20.jpg","Classical_6.mp3","Image"
4798,"computer","10",497,"3","Post","image12.jpg","Cut_jazz_16.mp3","Music"
4798,"computer","11",83,"4","Post","image4.jpg","Classical_19.mp3","Both"
4798,"computer","12",469,"9","Post","image2.jpg","Classical_8.mp3","Both"
4798,"computer","13",484,"8","Post","image14.jpg","Classical_18.mp3","Both"
4798,"computer","14",452,"7","Post","image1.jpg","Cut_jazz_16.mp3","Image"
4798,"computer","15",1045,"3","Post","image5.jpg","Cut_jazz_10.mp3","Music"
4798,"computer","16",428,"3","Post","image36.jpg","Cut_jazz_2.mp3","Both"
4798,"computer","17",405,"9","Post","image14.jpg","Classical_15.mp3","Music"
4798,"computer","18",417,"2","Post","image10.jpg","Cut_jazz_16.mp3","Both"
4798,"computer","19",480,"4","Post","image20.jpg","Classical_8.mp3","Music"
4798,"computer","20",479,"5","Post","image33.jpg","Classical_1.mp3","Music"
4798,"computer","21",943,"8","Post","image14.jpg","Classical_17.mp3","Image"
4798,"computer","22",855,"4","Post","image35.jpg","Classical_2.mp3","Music"
4798,"computer","23",89,"6","Post","image39.jpg","Cut_jazz_1.mp3","Both"
4798,"computer","24",506,"6","Post","image15.jpg","Classical_15.mp3","Image"
4798,"computer","25",932,"6","Post","image12.jpg","Cut_jazz_14.mp3","Both"
4798,"computer","26",507,"7","Post","image36.jpg","Classical_19.mp3","Music"
4798,"computer","27",836,"8","Post","image3.jpg","Classical_7.mp3","Music"
4798,"computer","28",406,"8","Post","image17.jpg","Classical_17.mp3","Music"
4798,"computer","29",436,"7","Post","image34.jpg","Classical_4.mp3","Music"
4798,"computer","30",993,"4","Post","image15.jpg","Classical_18.mp3","Music"
4798,"computer","31",839,"4","Post","image12.jpg","Cut_jazz_19.mp3","Image"
4798,"computer","32",510,"6","Post","image2.jpg","Classical_6.mp3","Music"
4798,"computer","33",1005,"6","Post","image3.jpg","Classical_8.mp3","Image"
4798,"computer","34",980,"8","Post","image52.jpg","Cut_jazz_7.mp3","Music"
4798,"computer","35",421,"8","Post","image10.jpg","Cut_jazz_14.mp3","Image"
4798,"computer","36",90,"3","Post","image35.jpg","Classical_1.mp3","Both"
4798,"computer","37",410,"5","Post","image1.jpg","Cut_jazz_14.mp3","Music"
4798,"computer","38",1040,"9","Post","image2.jpg","Classical_7.mp3","Image"
4798,"computer","39",922,"8","Post","image39.jpg","Classical_19.mp3","Image"
4798,"computer","40",931,"6","Post","image47.jpg","Cut_jazz_7.mp3","Image"
4798,"computer","41",503,"5","Post","image39.jpg","Cut_jazz_2.mp3","Music"
4798,"computer","42",407,"7","Post","image3.jpg","Classical_6.mp3","Both"
4798,"computer","43",991,"5","Post","image52.jpg","Cut_jazz_10.mp3","Image"
4798,"computer","44",63,"4","Post","image33.jpg","Classical_4.mp3","Both"
4798,"computer","45",431,"5","Post","image10.jpg","Cut_jazz_19.mp3","Music"
4798,"computer","46",987,"4","Post","image5.jpg","Cut_jazz_7.mp3","Both"
4798,"computer","47",437,"5","Post","image1.jpg","Cut_jazz_19.mp3","Both"
4798,"computer","48",1030,"4","Post","image15.jpg","Classical_17.mp3","Both"
4798,"computer","49",470,"6","Post","image47.jpg","Cut_jazz_10.mp3","Both"
4798,"computer","50",1031,"7","Post","image20.jpg","Classical_7.mp3","Both"
4798,"computer","51",422,"3","Post","image47.jpg","Cut_jazz_5.mp3","Music"
4798,"computer","52",936,"5","Post","image34.jpg","Classical_2.mp3","Both"
4798,"computer","53",505,"4","Post","image17.jpg","Classical_15.mp3","Both"
4798,"computer","54",1029,"2","Post","image33.jpg","Classical_2.mp3","Image"
4798,"computer","55",491,"3","Post","image4.jpg","Cut_jazz_2.mp3","Image"
4798,"computer","56",1033,"4","Post","image5.jpg","Cut_jazz_5.mp3","Image"
4798,"computer","57",934,"6","Post","image36.jpg","Cut_jazz_1.mp3","Image"
4798,"computer","4",1019,"8","Pre","image14.jpg","Cut_jazz_19.mp3","Both"
4798,"computer","5",881,"9","Pre","image17.jpg","Cut_jazz_14.mp3","Both"
4798,"computer","6",953,"6","Pre","image35.jpg","Classical_7.mp3","Music"
4798,"computer","7",67,"6","Pre","image1.jpg","Cut_jazz_1.mp3","Image"
4798,"computer","8",59,"6","Pre","image47.jpg","Classical_1.mp3","Music"
4798,"computer","9",917,"7","Pre","image2.jpg","Classical_17.mp3","Image"
4798,"computer","10",1000,"2","Pre","image39.jpg","Cut_jazz_10.mp3","Music"
4798,"computer","11",845,"4","Pre","image20.jpg","Classical_18.mp3","Music"
4798,"computer","12",438,"4","Pre","image1.jpg","Classical_19.mp3","Music"
4798,"computer","13",888,"4","Pre","image4.jpg","Cut_jazz_10.mp3","Image"
4798,"computer","14",412,"4","Pre","image15.jpg","Cut_jazz_16.mp3","Both"
4798,"computer","15",404,"4","Pre","image5.jpg","Classical_1.mp3","Image"
4798,"computer","16",401,"6","Pre","image33.jpg","Classical_8.mp3","Both"
4798,"computer","17",499,"2","Pre","image36.jpg","Cut_jazz_10.mp3","Both"
4798,"computer","18",1054,"7","Pre","image3.jpg","Classical_18.mp3","Image"
4798,"computer","19",466,"7","Pre","image33.jpg","Classical_7.mp3","Image"
4798,"computer","20",930,"6","Pre","image1.jpg","Cut_jazz_2.mp3","Both"
4798,"computer","21",1041,"2","Pre","image4.jpg","Cut_jazz_7.mp3","Music"
4798,"computer","22",445,"6","Pre","image20.jpg","Classical_17.mp3","Both"
4798,"computer","23",477,"7","Pre","image17.jpg","Cut_jazz_16.mp3","Music"
4798,"computer","24",896,"6","Pre","image20.jpg","Classical_15.mp3","Image"
4798,"computer","25",963,"5","Pre","image14.jpg","Cut_jazz_14.mp3","Music"
4798,"computer","26",861,"5","Pre","image2.jpg","Classical_15.mp3","Music"
4798,"computer","27",487,"3","Pre","image36.jpg","Cut_jazz_7.mp3","Image"
4798,"computer","28",444,"7","Pre","image14.jpg","Cut_jazz_16.mp3","Image"
4798,"computer","29",447,"6","Pre","image33.jpg","Classical_6.mp3","Music"
4798,"computer","30",1022,"6","Pre","image5.jpg","Classical_4.mp3","Music"
4798,"computer","31",886,"7","Pre","image17.jpg","Cut_jazz_19.mp3","Image"
4798,"computer","32",53,"6","Pre","image2.jpg","Classical_18.mp3","Both"
4798,"computer","33",884,"7","Pre","image52.jpg","Classical_4.mp3","Image"
4798,"computer","34",852,"5","Pre","image10.jpg","Cut_jazz_1.mp3","Both"
4798,"computer","35",496,"9","Pre","image12.jpg","Classical_19.mp3","Both"
4798,"computer","36",1004,"1","Pre","image35.jpg","Classical_8.mp3","Image"
4798,"computer","37",837,"4","Pre","image10.jpg","Cut_jazz_2.mp3","Music"
4798,"computer","38",485,"6","Pre","image3.jpg","Classical_17.mp3","Music"
4798,"computer","39",430,"4","Pre","image47.jpg","Classical_2.mp3","Image"
4798,"computer","40",1014,"4","Pre","image35.jpg","Classical_6.mp3","Both"
4798,"computer","41",434,"7","Pre","image5.jpg","Classical_2.mp3","Both"
4798,"computer","42",414,"2","Pre","image15.jpg","Cut_jazz_19.mp3","Music"
4798,"computer","43",1003,"1","Pre","image39.jpg","Cut_jazz_7.mp3","Both"
4798,"computer","44",859,"3","Pre","image4.jpg","Cut_jazz_5.mp3","Both"
4798,"computer","45",966,"4","Pre","image47.jpg","Classical_4.mp3","Both"
4798,"computer","46",463,"8","Pre","image3.jpg","Classical_15.mp3","Both"
4798,"computer","47",998,"8","Pre","image12.jpg","Cut_jazz_2.mp3","Image"
4798,"computer","48",942,"2","Pre","image36.jpg","Cut_jazz_5.mp3","Music"
4798,"computer","49",70,"3","Pre","image10.jpg","Classical_19.mp3","Image"
4798,"computer","50",915,"4","Pre","image34.jpg","Classical_7.mp3","Both"
4798,"computer","51",1049,"7","Pre","image52.jpg","Classical_1.mp3","Both"
4798,"computer","52",844,"6","Pre","image39.jpg","Cut_jazz_5.mp3","Image"
4798,"computer","53",1008,"5","Pre","image52.jpg","Classical_2.mp3","Music"
4798,"computer","54",69,"4","Pre","image34.jpg","Classical_8.mp3","Music"
4798,"computer","55",1016,"3","Pre","image12.jpg","Cut_jazz_1.mp3","Music"
4798,"computer","56",432,"3","Pre","image34.jpg","Classical_6.mp3","Image"
4798,"computer","57",1051,"1","Pre","image15.jpg","Cut_jazz_14.mp3","Image"
4832,"computer","4",56,"2","Post","image34.jpg","Classical_1.mp3","Image"
4832,"computer","5",858,"5","Post","image17.jpg","Classical_18.mp3","Image"
4832,"computer","6",504,"5","Post","image35.jpg","Classical_4.mp3","Image"
4832,"computer","7",838,"3","Post","image52.jpg","Cut_jazz_5.mp3","Both"
4832,"computer","8",867,"3","Post","image4.jpg","Cut_jazz_1.mp3","Music"
4832,"computer","9",58,"7","Post","image20.jpg","Classical_6.mp3","Image"
4832,"computer","10",925,"4","Post","image12.jpg","Cut_jazz_16.mp3","Music"
4832,"computer","11",862,"6","Post","image4.jpg","Classical_19.mp3","Both"
4832,"computer","12",1037,"8","Post","image2.jpg","Classical_8.mp3","Both"
4832,"computer","13",52,"9","Post","image14.jpg","Classical_18.mp3","Both"
4832,"computer","14",889,"5","Post","image1.jpg","Cut_jazz_16.mp3","Image"
4832,"computer","15",62,"2","Post","image5.jpg","Cut_jazz_10.mp3","Music"
4832,"computer","16",460,"7","Post","image36.jpg","Cut_jazz_2.mp3","Both"
4832,"computer","17",964,"6","Post","image14.jpg","Classical_15.mp3","Music"
4832,"computer","18",975,"2","Post","image10.jpg","Cut_jazz_16.mp3","Both"
4832,"computer","19",928,"7","Post","image20.jpg","Classical_8.mp3","Music"
4832,"computer","20",1028,"8","Post","image33.jpg","Classical_1.mp3","Music"
4832,"computer","21",72,"8","Post","image14.jpg","Classical_17.mp3","Image"
4832,"computer","22",850,"6","Post","image35.jpg","Classical_2.mp3","Music"
4832,"computer","23",472,"4","Post","image39.jpg","Cut_jazz_1.mp3","Both"
4832,"computer","24",418,"1","Post","image15.jpg","Classical_15.mp3","Image"
4832,"computer","25",78,"7","Post","image12.jpg","Cut_jazz_14.mp3","Both"
4832,"computer","26",882,"7","Post","image36.jpg","Classical_19.mp3","Music"
4832,"computer","27",427,"7","Post","image3.jpg","Classical_7.mp3","Music"
4832,"computer","28",870,"6","Post","image17.jpg","Classical_17.mp3","Music"
4832,"computer","29",923,"4","Post","image34.jpg","Classical_4.mp3","Music"
4832,"computer","30",481,"6","Post","image15.jpg","Classical_18.mp3","Music"
4832,"computer","31",996,"5","Post","image12.jpg","Cut_jazz_19.mp3","Image"
4832,"computer","32",873,"6","Post","image2.jpg","Classical_6.mp3","Music"
4832,"computer","33",446,"6","Post","image3.jpg","Classical_8.mp3","Image"
4832,"computer","34",77,"9","Post","image52.jpg","Cut_jazz_7.mp3","Music"
4832,"computer","35",951,"4","Post","image10.jpg","Cut_jazz_14.mp3","Image"
4832,"computer","36",990,"4","Post","image35.jpg","Classical_1.mp3","Both"
4832,"computer","37",450,"3","Post","image1.jpg","Cut_jazz_14.mp3","Music"
4832,"computer","38",879,"5","Post","image2.jpg","Classical_7.mp3","Image"
4832,"computer","39",429,"7","Post","image39.jpg","Classical_19.mp3","Image"
4832,"computer","40",87,"3","Post","image47.jpg","Cut_jazz_7.mp3","Image"
4832,"computer","41",916,"5","Post","image39.jpg","Cut_jazz_2.mp3","Music"
4832,"computer","42",442,"6","Post","image3.jpg","Classical_6.mp3","Both"
4832,"computer","43",863,"4","Post","image52.jpg","Cut_jazz_10.mp3","Image"
4832,"computer","44",989,"3","Post","image33.jpg","Classical_4.mp3","Both"
4832,"computer","45",979,"7","Post","image10.jpg","Cut_jazz_19.mp3","Music"
4832,"computer","46",846,"4","Post","image5.jpg","Cut_jazz_7.mp3","Both"
4832,"computer","47",439,"7","Post","image1.jpg","Cut_jazz_19.mp3","Both"
4832,"computer","48",960,"2","Post","image15.jpg","Classical_17.mp3","Both"
4832,"computer","49",402,"1","Post","image47.jpg","Cut_jazz_10.mp3","Both"
4832,"computer","50",887,"8","Post","image20.jpg","Classical_7.mp3","Both"
4832,"computer","51",860,"4","Post","image47.jpg","Cut_jazz_5.mp3","Music"
4832,"computer","52",897,"2","Post","image34.jpg","Classical_2.mp3","Both"
4832,"computer","53",448,"7","Post","image17.jpg","Classical_15.mp3","Both"
4832,"computer","54",947,"4","Post","image33.jpg","Classical_2.mp3","Image"
4832,"computer","55",978,"4","Post","image4.jpg","Cut_jazz_2.mp3","Image"
4832,"computer","56",1006,"8","Post","image5.jpg","Cut_jazz_5.mp3","Image"
4832,"computer","57",486,"5","Post","image36.jpg","Cut_jazz_1.mp3","Image"
4832,"computer","4",847,"8","Pre","image14.jpg","Cut_jazz_19.mp3","Both"
4832,"computer","5",958,"5","Pre","image17.jpg","Cut_jazz_14.mp3","Both"
4832,"computer","6",433,"7","Pre","image35.jpg","Classical_7.mp3","Music"
4832,"computer","7",912,"6","Pre","image1.jpg","Cut_jazz_1.mp3","Image"
4832,"computer","8",80,"8","Pre","image47.jpg","Classical_1.mp3","Music"
4832,"computer","9",68,"9","Pre","image2.jpg","Classical_17.mp3","Image"
4832,"computer","10",55,"1","Pre","image39.jpg","Cut_jazz_10.mp3","Music"
4832,"computer","11",415,"9","Pre","image20.jpg","Classical_18.mp3","Music"
4832,"computer","12",79,"8","Pre","image1.jpg","Classical_19.mp3","Music"
4832,"computer","13",902,"4","Pre","image4.jpg","Cut_jazz_10.mp3","Image"
4832,"computer","14",425,"1","Pre","image15.jpg","Cut_jazz_16.mp3","Both"
4832,"computer","15",877,"8","Pre","image5.jpg","Classical_1.mp3","Image"
4832,"computer","16",476,"5","Pre","image33.jpg","Classical_8.mp3","Both"
4832,"computer","17",1038,"3","Pre","image36.jpg","Cut_jazz_10.mp3","Both"
4832,"computer","18",1055,"6","Pre","image3.jpg","Classical_18.mp3","Image"
4832,"computer","19",981,"4","Pre","image33.jpg","Classical_7.mp3","Image"
4832,"computer","20",1047,"6","Pre","image1.jpg","Cut_jazz_2.mp3","Both"
4832,"computer","21",64,"8","Pre","image4.jpg","Cut_jazz_7.mp3","Music"
4832,"computer","22",91,"9","Pre","image20.jpg","Classical_17.mp3","Both"
4832,"computer","23",919,"1","Pre","image17.jpg","Cut_jazz_16.mp3","Music"
4832,"computer","24",456,"8","Pre","image20.jpg","Classical_15.mp3","Image"
4832,"computer","25",841,"5","Pre","image14.jpg","Cut_jazz_14.mp3","Music"
4832,"computer","26",85,"8","Pre","image2.jpg","Classical_15.mp3","Music"
4832,"computer","27",851,"6","Pre","image36.jpg","Cut_jazz_7.mp3","Image"
4832,"computer","28",866,"8","Pre","image14.jpg","Cut_jazz_16.mp3","Image"
4832,"computer","29",977,"5","Pre","image33.jpg","Classical_6.mp3","Music"
4832,"computer","30",88,"7","Pre","image5.jpg","Classical_4.mp3","Music"
4832,"computer","31",471,"6","Pre","image17.jpg","Cut_jazz_19.mp3","Image"
4832,"computer","32",495,"7","Pre","image2.jpg","Classical_18.mp3","Both"
4832,"computer","33",461,"4","Pre","image52.jpg","Classical_4.mp3","Image"
4832,"computer","34",1053,"2","Pre","image10.jpg","Cut_jazz_1.mp3","Both"
4832,"computer","35",937,"7","Pre","image12.jpg","Classical_19.mp3","Both"
4832,"computer","36",498,"5","Pre","image35.jpg","Classical_8.mp3","Image"
4832,"computer","37",938,"3","Pre","image10.jpg","Cut_jazz_2.mp3","Music"
4832,"computer","38",408,"8","Pre","image3.jpg","Classical_17.mp3","Music"
4832,"computer","39",1013,"2","Pre","image47.jpg","Classical_2.mp3","Image"
4832,"computer","40",972,"5","Pre","image35.jpg","Classical_6.mp3","Both"
4832,"computer","41",478,"8","Pre","image5.jpg","Classical_2.mp3","Both"
4832,"computer","42",911,"9","Pre","image15.jpg","Cut_jazz_19.mp3","Music"
4832,"computer","43",490,"6","Pre","image39.jpg","Cut_jazz_7.mp3","Both"
4832,"computer","44",475,"4","Pre","image4.jpg","Cut_jazz_5.mp3","Both"
4832,"computer","45",423,"3","Pre","image47.jpg","Classical_4.mp3","Both"
4832,"computer","46",76,"7","Pre","image3.jpg","Classical_15.mp3","Both"
4832,"computer","47",482,"7","Pre","image12.jpg","Cut_jazz_2.mp3","Image"
4832,"computer","48",892,"4","Pre","image36.jpg","Cut_jazz_5.mp3","Music"
4832,"computer","49",86,"2","Pre","image10.jpg","Classical_19.mp3","Image"
4832,"computer","50",875,"3","Pre","image34.jpg","Classical_7.mp3","Both"
4832,"computer","51",924,"2","Pre","image52.jpg","Classical_1.mp3","Both"
4832,"computer","52",913,"6","Pre","image39.jpg","Cut_jazz_5.mp3","Image"
4832,"computer","53",946,"7","Pre","image52.jpg","Classical_2.mp3","Music"
4832,"computer","54",473,"7","Pre","image34.jpg","Classical_8.mp3","Music"
4832,"computer","55",483,"6","Pre","image12.jpg","Cut_jazz_1.mp3","Music"
4832,"computer","56",1043,"1","Pre","image34.jpg","Classical_6.mp3","Image"
4832,"computer","57",1011,"1","Pre","image15.jpg","Cut_jazz_14.mp3","Image"
4743,"computer","4",1549.20000004768,"4","Post","image17.jpg","Cut_jazz_7.mp3","Music"
4743,"computer","5",939.599999904633,"3","Post","image36.jpg","Classical_2.mp3","Image"
4743,"computer","6",935.300000190735,"3","Post","image20.jpg","Cut_jazz_2.mp3","Music"
4743,"computer","7",2391.39999985695,"4","Post","image35.jpg","Cut_jazz_16.mp3","Music"
4743,"computer","8",906.5,"3","Post","image1.jpg","Classical_17.mp3","Image"
4743,"computer","9",1108.40000009537,"4","Post","image47.jpg","Classical_7.mp3","Image"
4743,"computer","10",1514.10000014305,"4","Post","image17.jpg","Cut_jazz_10.mp3","Image"
4743,"computer","11",643,"4","Post","image12.jpg","Classical_17.mp3","Music"
4743,"computer","12",513.400000095367,"5","Post","image15.jpg","Cut_jazz_5.mp3","Image"
4743,"computer","13",554.599999904633,"3","Post","image36.jpg","Classical_1.mp3","Music"
4743,"computer","14",1608.29999995232,"4","Post","image15.jpg","Cut_jazz_7.mp3","Both"
4743,"computer","15",1142.70000004768,"4","Post","image52.jpg","Classical_8.mp3","Image"
4743,"computer","16",842.099999904633,"4","Post","image35.jpg","Cut_jazz_19.mp3","Image"
4743,"computer","17",659.299999952316,"4","Post","image3.jpg","Cut_jazz_2.mp3","Image"
4743,"computer","18",442.799999952316,"4","Post","image14.jpg","Cut_jazz_7.mp3","Image"
4743,"computer","19",375.600000143051,"4","Post","image52.jpg","Classical_7.mp3","Music"
4743,"computer","20",535.900000095367,"4","Post","image1.jpg","Classical_18.mp3","Both"
4743,"computer","21",1058.29999995232,"4","Post","image2.jpg","Cut_jazz_2.mp3","Both"
4743,"computer","22",415.600000143051,"4","Post","image47.jpg","Classical_8.mp3","Both"
4743,"computer","23",1039,"4","Post","image12.jpg","Classical_15.mp3","Both"
4743,"computer","24",812.300000190735,"4","Post","image20.jpg","Classical_19.mp3","Image"
4743,"computer","25",596.5,"4","Post","image52.jpg","Classical_6.mp3","Both"
4743,"computer","26",1188.89999985695,"4","Post","image4.jpg","Classical_1.mp3","Both"
4743,"computer","27",607.099999904633,"4","Post","image2.jpg","Classical_19.mp3","Music"
4743,"computer","28",826.299999952316,"4","Post","image5.jpg","Classical_8.mp3","Music"
4743,"computer","29",321,"4","Post","image34.jpg","Cut_jazz_16.mp3","Both"
4743,"computer","30",299.799999952316,"4","Post","image4.jpg","Classical_4.mp3","Image"
4743,"computer","31",339.399999856949,"4","Post","image33.jpg","Cut_jazz_19.mp3","Both"
4743,"computer","32",1089,"4","Post","image3.jpg","Classical_19.mp3","Both"
4743,"computer","33",2236.09999990463,"5","Post","image14.jpg","Cut_jazz_10.mp3","Both"
4743,"computer","34",1212.09999990463,"4","Post","image39.jpg","Classical_4.mp3","Music"
4743,"computer","35",545.700000047684,"4","Post","image10.jpg","Classical_17.mp3","Both"
4743,"computer","36",707.299999952316,"6","Post","image33.jpg","Cut_jazz_14.mp3","Music"
4743,"computer","37",938,"4","Post","image36.jpg","Classical_4.mp3","Both"
4743,"computer","38",914.099999904633,"4","Post","image34.jpg","Cut_jazz_14.mp3","Image"
4743,"computer","39",928.799999952316,"4","Post","image12.jpg","Classical_18.mp3","Image"
4743,"computer","40",258.400000095367,"4","Post","image34.jpg","Cut_jazz_19.mp3","Music"
4743,"computer","41",406.899999856949,"4","Post","image2.jpg","Cut_jazz_1.mp3","Image"
4743,"computer","42",1095.5,"4","Post","image1.jpg","Classical_15.mp3","Music"
4743,"computer","43",977.900000095367,"4","Post","image14.jpg","Cut_jazz_5.mp3","Music"
4743,"computer","44",2406.09999990463,"4","Post","image5.jpg","Classical_7.mp3","Both"
4743,"computer","45",577.900000095367,"4","Post","image39.jpg","Classical_1.mp3","Image"
4743,"computer","46",329.100000143051,"4","Post","image5.jpg","Classical_6.mp3","Image"
4743,"computer","47",1225.29999995232,"4","Post","image10.jpg","Classical_18.mp3","Music"
4743,"computer","48",1106.29999995232,"4","Post","image3.jpg","Cut_jazz_1.mp3","Music"
4743,"computer","49",453.799999952316,"4","Post","image33.jpg","Cut_jazz_16.mp3","Image"
4743,"computer","50",466.200000047684,"4","Post","image39.jpg","Classical_2.mp3","Both"
4743,"computer","51",1503.40000009537,"4","Post","image35.jpg","Cut_jazz_14.mp3","Both"
4743,"computer","52",1814,"4","Post","image20.jpg","Cut_jazz_1.mp3","Both"
4743,"computer","53",3479.90000009537,"4","Post","image17.jpg","Cut_jazz_5.mp3","Both"
4743,"computer","54",2903.59999990463,"4","Post","image15.jpg","Cut_jazz_10.mp3","Music"
4743,"computer","55",1388.5,"4","Post","image4.jpg","Classical_2.mp3","Music"
4743,"computer","56",705.399999856949,"4","Post","image10.jpg","Classical_15.mp3","Image"
4743,"computer","57",335.299999952316,"4","Post","image47.jpg","Classical_6.mp3","Music"
4743,"computer","4",1088.70000004768,"5","Pre","image52.jpg","Cut_jazz_1.mp3","Music"
4743,"computer","5",509.900000095367,"5","Pre","image2.jpg","Classical_17.mp3","Image"
4743,"computer","6",547.100000143051,"3","Pre","image5.jpg","Cut_jazz_1.mp3","Both"
4743,"computer","7",226.900000095367,"3","Pre","image15.jpg","Classical_4.mp3","Music"
4743,"computer","8",690.299999952316,"4","Pre","image35.jpg","Classical_7.mp3","Music"
4743,"computer","9",1631.80000019073,"4","Pre","image2.jpg","Classical_15.mp3","Music"
4743,"computer","10",4358.40000009537,"4","Pre","image15.jpg","Classical_1.mp3","Image"
4743,"computer","11",4120.89999985695,"4","Pre","image39.jpg","Cut_jazz_16.mp3","Both"
4743,"computer","12",3259.89999985695,"4","Pre","image20.jpg","Classical_15.mp3","Image"
4743,"computer","13",638.099999904633,"4","Pre","image4.jpg","Cut_jazz_16.mp3","Music"
4743,"computer","14",2471.5,"4","Pre","image47.jpg","Cut_jazz_2.mp3","Both"
4743,"computer","15",902.5,"4","Pre","image20.jpg","Classical_18.mp3","Music"
4743,"computer","16",4896.40000009537,"4","Pre","image47.jpg","Classical_19.mp3","Music"
4743,"computer","17",23961.6999998093,"4","Pre","image10.jpg","Cut_jazz_7.mp3","Both"
4743,"computer","18",537.799999952316,"4","Pre","image5.jpg","Classical_19.mp3","Image"
4743,"computer","19",191.899999856949,"4","Pre","image4.jpg","Cut_jazz_14.mp3","Both"
4743,"computer","20",357.900000095367,"4","Pre","image14.jpg","Classical_2.mp3","Image"
4743,"computer","21",5200.19999980927,"4","Pre","image1.jpg","Cut_jazz_10.mp3","Both"
4743,"computer","22",1242.5,"4","Pre","image39.jpg","Cut_jazz_19.mp3","Music"
4743,"computer","23",534,"4","Pre","image35.jpg","Classical_8.mp3","Image"
4743,"computer","24",2986.89999985695,"4","Pre","image39.jpg","Cut_jazz_14.mp3","Image"
4743,"computer","25",699.700000047684,"4","Pre","image17.jpg","Classical_2.mp3","Music"
4743,"computer","26",2109,"4","Pre","image12.jpg","Cut_jazz_10.mp3","Image"
4743,"computer","27",4133.20000004768,"4","Pre","image52.jpg","Classical_19.mp3","Both"
4743,"computer","28",3561.19999980927,"4","Pre","image10.jpg","Cut_jazz_5.mp3","Image"
4743,"computer","29",983.299999952316,"4","Pre","image36.jpg","Cut_jazz_19.mp3","Both"
4743,"computer","30",210.400000095367,"4","Pre","image33.jpg","Classical_7.mp3","Image"
4743,"computer","31",2799.39999985695,"4","Pre","image1.jpg","Cut_jazz_7.mp3","Image"
4743,"computer","32",2878.30000019073,"4","Pre","image17.jpg","Classical_1.mp3","Both"
4743,"computer","33",1910.09999990463,"4","Pre","image20.jpg","Classical_17.mp3","Both"
4743,"computer","34",2632.5,"4","Pre","image34.jpg","Classical_6.mp3","Image"
4743,"computer","35",872.899999856949,"4","Pre","image15.jpg","Classical_2.mp3","Both"
4743,"computer","36",5983,"4","Pre","image33.jpg","Classical_6.mp3","Music"
4743,"computer","37",8928.29999995232,"4","Pre","image12.jpg","Cut_jazz_5.mp3","Both"
4743,"computer","38",1879.60000014305,"4","Pre","image47.jpg","Cut_jazz_1.mp3","Image"
4743,"computer","39",2522.09999990463,"4","Pre","image14.jpg","Classical_1.mp3","Music"
4743,"computer","40",635.600000143051,"4","Pre","image35.jpg","Classical_6.mp3","Both"
4743,"computer","41",11407.0999999046,"4","Pre","image3.jpg","Classical_18.mp3","Image"
4743,"computer","42",1064.80000019073,"4","Pre","image14.jpg","Classical_4.mp3","Both"
4743,"computer","43",121.399999856949,"4","Pre","image52.jpg","Cut_jazz_2.mp3","Image"
4743,"computer","44",470.400000095367,"4","Pre","image2.jpg","Classical_18.mp3","Both"
4743,"computer","45",8676.5,"4","Pre","image3.jpg","Classical_17.mp3","Music"
4743,"computer","46",2164.39999985695,"4","Pre","image17.jpg","Classical_4.mp3","Image"
4743,"computer","47",2691.10000014305,"4","Pre","image34.jpg","Classical_8.mp3","Music"
4743,"computer","48",1029.90000009537,"4","Pre","image3.jpg","Classical_15.mp3","Both"
4743,"computer","49",1622.5,"4","Pre","image33.jpg","Classical_8.mp3","Both"
4743,"computer","50",445.700000047684,"4","Pre","image12.jpg","Cut_jazz_7.mp3","Music"
4743,"computer","51",4122.5,"4","Pre","image4.jpg","Cut_jazz_19.mp3","Image"
4743,"computer","52",2203.70000004768,"4","Pre","image34.jpg","Classical_7.mp3","Both"
4743,"computer","53",865.099999904633,"4","Pre","image5.jpg","Cut_jazz_2.mp3","Music"
4743,"computer","54",89.1000001430511,"4","Pre","image36.jpg","Cut_jazz_16.mp3","Image"
4743,"computer","55",370.599999904633,"4","Pre","image1.jpg","Cut_jazz_5.mp3","Music"
4743,"computer","56",402.399999856949,"4","Pre","image36.jpg","Cut_jazz_14.mp3","Music"
4743,"computer","57",2890.60000014305,"4","Pre","image10.jpg","Cut_jazz_10.mp3","Music"
4889,"computer","4",3260.29999999702,"3","Post","image17.jpg","Cut_jazz_7.mp3","Music"
4889,"computer","5",3397.20000000298,"2","Post","image36.jpg","Classical_2.mp3","Image"
4889,"computer","6",1794.89999999106,"3","Post","image20.jpg","Cut_jazz_2.mp3","Music"
4889,"computer","7",1002.29999999702,"2","Post","image35.jpg","Cut_jazz_16.mp3","Music"
4889,"computer","8",3314,"3","Post","image1.jpg","Classical_17.mp3","Image"
4889,"computer","9",886.79999999702,"1","Post","image47.jpg","Classical_7.mp3","Image"
4889,"computer","10",2290.10000000894,"5","Post","image17.jpg","Cut_jazz_10.mp3","Image"
4889,"computer","11",2093.90000000596,"2","Post","image12.jpg","Classical_17.mp3","Music"
4889,"computer","12",966.09999999404,"2","Post","image15.jpg","Cut_jazz_5.mp3","Image"
4889,"computer","13",1346.70000000298,"5","Post","image36.jpg","Classical_1.mp3","Music"
4889,"computer","14",3562.39999999106,"4","Post","image15.jpg","Cut_jazz_7.mp3","Both"
4889,"computer","15",1456.20000000298,"3","Post","image52.jpg","Classical_8.mp3","Image"
4889,"computer","16",6336.10000000894,"1","Post","image35.jpg","Cut_jazz_19.mp3","Image"
4889,"computer","17",886.70000000298,"5","Post","image3.jpg","Cut_jazz_2.mp3","Image"
4889,"computer","18",715.90000000596,"2","Post","image14.jpg","Cut_jazz_7.mp3","Image"
4889,"computer","19",995.59999999404,"6","Post","image52.jpg","Classical_7.mp3","Music"
4889,"computer","20",1198.09999999404,"3","Post","image1.jpg","Classical_18.mp3","Both"
4889,"computer","21",2920.5,"3","Post","image2.jpg","Cut_jazz_2.mp3","Both"
4889,"computer","22",1152.60000000894,"4","Post","image47.jpg","Classical_8.mp3","Both"
4889,"computer","23",959.600000008941,"2","Post","image12.jpg","Classical_15.mp3","Both"
4889,"computer","24",700.899999991059,"3","Post","image20.jpg","Classical_19.mp3","Image"
4889,"computer","25",2981.10000000894,"4","Post","image52.jpg","Classical_6.mp3","Both"
4889,"computer","26",2148.89999999106,"1","Post","image4.jpg","Classical_1.mp3","Both"
4889,"computer","27",3057.40000000596,"7","Post","image2.jpg","Classical_19.mp3","Music"
4889,"computer","28",730.29999999702,"5","Post","image5.jpg","Classical_8.mp3","Music"
4889,"computer","29",1420.5,"1","Post","image34.jpg","Cut_jazz_16.mp3","Both"
4889,"computer","30",515.09999999404,"1","Post","image4.jpg","Classical_4.mp3","Image"
4889,"computer","31",1089.80000001192,"2","Post","image33.jpg","Cut_jazz_19.mp3","Both"
4889,"computer","32",1366.5,"7","Post","image3.jpg","Classical_19.mp3","Both"
4889,"computer","33",1225.79999999702,"4","Post","image14.jpg","Cut_jazz_10.mp3","Both"
4889,"computer","34",1389.40000000596,"3","Post","image39.jpg","Classical_4.mp3","Music"
4889,"computer","35",881.90000000596,"1","Post","image10.jpg","Classical_17.mp3","Both"
4889,"computer","36",1793.29999999702,"2","Post","image33.jpg","Cut_jazz_14.mp3","Music"
4889,"computer","37",734.5,"2","Post","image36.jpg","Classical_4.mp3","Both"
4889,"computer","38",556.5,"1","Post","image34.jpg","Cut_jazz_14.mp3","Image"
4889,"computer","39",483.199999988079,"1","Post","image12.jpg","Classical_18.mp3","Image"
4889,"computer","40",3588,"3","Post","image34.jpg","Cut_jazz_19.mp3","Music"
4889,"computer","41",900.5,"2","Post","image2.jpg","Cut_jazz_1.mp3","Image"
4889,"computer","42",2271,"4","Post","image1.jpg","Classical_15.mp3","Music"
4889,"computer","43",1862.79999999702,"2","Post","image14.jpg","Cut_jazz_5.mp3","Music"
4889,"computer","44",713,"7","Post","image5.jpg","Classical_7.mp3","Both"
4889,"computer","45",879.800000011921,"1","Post","image39.jpg","Classical_1.mp3","Image"
4889,"computer","46",1327.09999999404,"5","Post","image5.jpg","Classical_6.mp3","Image"
4889,"computer","47",1200.40000000596,"2","Post","image10.jpg","Classical_18.mp3","Music"
4889,"computer","48",4894.80000001192,"3","Post","image3.jpg","Cut_jazz_1.mp3","Music"
4889,"computer","49",1181.70000000298,"1","Post","image33.jpg","Cut_jazz_16.mp3","Image"
4889,"computer","50",2388.29999999702,"3","Post","image39.jpg","Classical_2.mp3","Both"
4889,"computer","51",1136.89999999106,"2","Post","image35.jpg","Cut_jazz_14.mp3","Both"
4889,"computer","52",760.70000000298,"5","Post","image20.jpg","Cut_jazz_1.mp3","Both"
4889,"computer","53",867.600000008941,"7","Post","image17.jpg","Cut_jazz_5.mp3","Both"
4889,"computer","54",1155.29999999702,"3","Post","image15.jpg","Cut_jazz_10.mp3","Music"
4889,"computer","55",989.40000000596,"2","Post","image4.jpg","Classical_2.mp3","Music"
4889,"computer","56",809.5,"2","Post","image10.jpg","Classical_15.mp3","Image"
4889,"computer","57",466.20000000298,"2","Post","image47.jpg","Classical_6.mp3","Music"
4889,"computer","4",3654.20000000298,"2","Pre","image52.jpg","Cut_jazz_1.mp3","Music"
4889,"computer","5",925.79999999702,"3","Pre","image2.jpg","Classical_17.mp3","Image"
4889,"computer","6",927.40000000596,"5","Pre","image5.jpg","Cut_jazz_1.mp3","Both"
4889,"computer","7",1419.20000000298,"2","Pre","image15.jpg","Classical_4.mp3","Music"
4889,"computer","8",3528.09999999404,"1","Pre","image35.jpg","Classical_7.mp3","Music"
4889,"computer","9",2084.5,"3","Pre","image2.jpg","Classical_15.mp3","Music"
4889,"computer","10",3000.29999999702,"1","Pre","image15.jpg","Classical_1.mp3","Image"
4889,"computer","11",2586,"3","Pre","image39.jpg","Cut_jazz_16.mp3","Both"
4889,"computer","12",3788.5,"3","Pre","image20.jpg","Classical_15.mp3","Image"
4889,"computer","13",1603.70000000298,"2","Pre","image4.jpg","Cut_jazz_16.mp3","Music"
4889,"computer","14",836.5,"3","Pre","image47.jpg","Cut_jazz_2.mp3","Both"
4889,"computer","15",937.29999999702,"5","Pre","image20.jpg","Classical_18.mp3","Music"
4889,"computer","16",3029,"3","Pre","image47.jpg","Classical_19.mp3","Music"
4889,"computer","17",993.59999999404,"2","Pre","image10.jpg","Cut_jazz_7.mp3","Both"
4889,"computer","18",1748.29999999702,"6","Pre","image5.jpg","Classical_19.mp3","Image"
4889,"computer","19",940.800000011921,"2","Pre","image4.jpg","Cut_jazz_14.mp3","Both"
4889,"computer","20",917.5,"3","Pre","image14.jpg","Classical_2.mp3","Image"
4889,"computer","21",1397.70000000298,"2","Pre","image1.jpg","Cut_jazz_10.mp3","Both"
4889,"computer","22",1229.20000000298,"4","Pre","image39.jpg","Cut_jazz_19.mp3","Music"
4889,"computer","23",1443.10000000894,"1","Pre","image35.jpg","Classical_8.mp3","Image"
4889,"computer","24",690.79999999702,"2","Pre","image39.jpg","Cut_jazz_14.mp3","Image"
4889,"computer","25",919.40000000596,"3","Pre","image17.jpg","Classical_2.mp3","Music"
4889,"computer","26",1041.90000000596,"1","Pre","image12.jpg","Cut_jazz_10.mp3","Image"
4889,"computer","27",857.300000011921,"6","Pre","image52.jpg","Classical_19.mp3","Both"
4889,"computer","28",1825.40000000596,"1","Pre","image10.jpg","Cut_jazz_5.mp3","Image"
4889,"computer","29",1313.60000000894,"2","Pre","image36.jpg","Cut_jazz_19.mp3","Both"
4889,"computer","30",5212.09999999404,"1","Pre","image33.jpg","Classical_7.mp3","Image"
4889,"computer","31",1670,"2","Pre","image1.jpg","Cut_jazz_7.mp3","Image"
4889,"computer","32",2029,"6","Pre","image17.jpg","Classical_1.mp3","Both"
4889,"computer","33",597029.700000003,"2","Pre","image20.jpg","Classical_17.mp3","Both"
4889,"computer","34",893.40000000596,"1","Pre","image34.jpg","Classical_6.mp3","Image"
4889,"computer","35",766,"3","Pre","image15.jpg","Classical_2.mp3","Both"
4889,"computer","36",912.90000000596,"2","Pre","image33.jpg","Classical_6.mp3","Music"
4889,"computer","37",1620,"1","Pre","image12.jpg","Cut_jazz_5.mp3","Both"
4889,"computer","38",1857,"2","Pre","image47.jpg","Cut_jazz_1.mp3","Image"
4889,"computer","39",1952.5,"3","Pre","image14.jpg","Classical_1.mp3","Music"
4889,"computer","40",2444.70000000298,"1","Pre","image35.jpg","Classical_6.mp3","Both"
4889,"computer","41",1197.40000000596,"5","Pre","image3.jpg","Classical_18.mp3","Image"
4889,"computer","42",1233.70000000298,"3","Pre","image14.jpg","Classical_4.mp3","Both"
4889,"computer","43",1067.29999999702,"1","Pre","image52.jpg","Cut_jazz_2.mp3","Image"
4889,"computer","44",644,"1","Pre","image2.jpg","Classical_18.mp3","Both"
4889,"computer","45",498.20000000298,"1","Pre","image3.jpg","Classical_17.mp3","Music"
4889,"computer","46",1786.5,"5","Pre","image17.jpg","Classical_4.mp3","Image"
4889,"computer","47",531.5,"5","Pre","image34.jpg","Classical_8.mp3","Music"
4889,"computer","48",793.600000008941,"5","Pre","image3.jpg","Classical_15.mp3","Both"
4889,"computer","49",1035.90000000596,"2","Pre","image33.jpg","Classical_8.mp3","Both"
4889,"computer","50",1375.10000000894,"1","Pre","image12.jpg","Cut_jazz_7.mp3","Music"
4889,"computer","51",2017.70000000298,"1","Pre","image4.jpg","Cut_jazz_19.mp3","Image"
4889,"computer","52",1539.70000000298,"1","Pre","image34.jpg","Classical_7.mp3","Both"
4889,"computer","53",4364.5,"2","Pre","image5.jpg","Cut_jazz_2.mp3","Music"
4889,"computer","54",1407.09999999404,"2","Pre","image36.jpg","Cut_jazz_16.mp3","Image"
4889,"computer","55",1081.5,"3","Pre","image1.jpg","Cut_jazz_5.mp3","Music"
4889,"computer","56",916.09999999404,"1","Pre","image36.jpg","Cut_jazz_14.mp3","Music"
4889,"computer","57",567.899999991059,"1","Pre","image10.jpg","Cut_jazz_10.mp3","Music"
4856,"computer","4",2582.39999999944,"5","Pre","image1.jpg","Classical_2.mp3","Image"
4856,"computer","5",1345.09999999963,"8","Pre","image47.jpg","Cut_jazz_7.mp3","Image"
4856,"computer","6",3237.10000000056,"8","Pre","image3.jpg","Classical_6.mp3","Both"
4856,"computer","7",984,"3","Pre","image33.jpg","Cut_jazz_1.mp3","Image"
4856,"computer","8",915.299999999814,"8","Pre","image39.jpg","Cut_jazz_16.mp3","Both"
4856,"computer","9",919.200000000186,"7","Pre","image15.jpg","Classical_17.mp3","Both"
4856,"computer","10",1138.79999999981,"6","Pre","image12.jpg","Classical_4.mp3","Image"
4856,"computer","11",1161.70000000019,"9","Pre","image17.jpg","Classical_15.mp3","Both"
4856,"computer","12",1042.59999999963,"5","Pre","image47.jpg","Cut_jazz_5.mp3","Music"
4856,"computer","13",894.100000000559,"4","Pre","image36.jpg","Cut_jazz_14.mp3","Music"
4856,"computer","14",846.600000000559,"7","Pre","image15.jpg","Classical_18.mp3","Music"
4856,"computer","15",565.799999999814,"8","Pre","image14.jpg","Classical_17.mp3","Image"
4856,"computer","16",832.700000000186,"5","Pre","image35.jpg","Cut_jazz_2.mp3","Image"
4856,"computer","17",760.200000000186,"5","Pre","image2.jpg","Classical_7.mp3","Image"
4856,"computer","18",838.700000000186,"8","Pre","image20.jpg","Classical_6.mp3","Image"
4856,"computer","19",807.900000000373,"5","Pre","image5.jpg","Cut_jazz_7.mp3","Both"
4856,"computer","20",1663.90000000037,"5","Pre","image20.jpg","Classical_7.mp3","Both"
4856,"computer","21",723.399999999441,"4","Pre","image33.jpg","Cut_jazz_2.mp3","Both"
4856,"computer","22",907.799999999814,"6","Pre","image12.jpg","Classical_1.mp3","Both"
4856,"computer","23",834,"5","Pre","image33.jpg","Classical_19.mp3","Music"
4856,"computer","24",1876.90000000037,"6","Pre","image39.jpg","Cut_jazz_14.mp3","Image"
4856,"computer","25",1222.5,"4","Pre","image5.jpg","Cut_jazz_10.mp3","Music"
4856,"computer","26",1211.29999999981,"6","Pre","image2.jpg","Classical_6.mp3","Music"
4856,"computer","27",1709,"7","Pre","image3.jpg","Classical_8.mp3","Image"
4856,"computer","28",768.400000000373,"5","Pre","image36.jpg","Cut_jazz_19.mp3","Both"
4856,"computer","29",1794,"7","Pre","image17.jpg","Classical_18.mp3","Image"
4856,"computer","30",815.5,"3","Pre","image52.jpg","Cut_jazz_5.mp3","Both"
4856,"computer","31",1005,"4","Pre","image35.jpg","Classical_19.mp3","Both"
4856,"computer","32",858.899999999441,"4","Pre","image10.jpg","Classical_2.mp3","Both"
4856,"computer","33",1525.79999999981,"4","Pre","image4.jpg","Cut_jazz_16.mp3","Music"
4856,"computer","34",1839.89999999944,"5","Pre","image5.jpg","Cut_jazz_5.mp3","Image"
4856,"computer","35",1047.79999999981,"3","Pre","image4.jpg","Cut_jazz_19.mp3","Image"
4856,"computer","36",787.900000000373,"5","Pre","image1.jpg","Classical_1.mp3","Music"
4856,"computer","37",961.299999999814,"5","Pre","image34.jpg","Classical_19.mp3","Image"
4856,"computer","38",995.399999999441,"4","Pre","image52.jpg","Cut_jazz_10.mp3","Image"
4856,"computer","39",618,"6","Pre","image3.jpg","Classical_7.mp3","Music"
4856,"computer","40",816.799999999814,"6","Pre","image14.jpg","Classical_15.mp3","Music"
4856,"computer","41",661,"8","Pre","image17.jpg","Classical_17.mp3","Music"
4856,"computer","42",795.100000000559,"8","Pre","image35.jpg","Cut_jazz_1.mp3","Music"
4856,"computer","43",831.299999999814,"7","Pre","image10.jpg","Classical_4.mp3","Music"
4856,"computer","44",951.599999999627,"6","Pre","image34.jpg","Cut_jazz_1.mp3","Both"
4856,"computer","45",877.899999999441,"6","Pre","image15.jpg","Classical_15.mp3","Image"
4856,"computer","46",489.799999999814,"6","Pre","image39.jpg","Cut_jazz_19.mp3","Music"
4856,"computer","47",578.900000000373,"5","Pre","image14.jpg","Classical_18.mp3","Both"
4856,"computer","48",1152.10000000056,"6","Pre","image34.jpg","Cut_jazz_2.mp3","Music"
4856,"computer","49",994.900000000373,"5","Pre","image2.jpg","Classical_8.mp3","Both"
4856,"computer","50",1302.5,"7","Pre","image4.jpg","Cut_jazz_14.mp3","Both"
4856,"computer","51",777.900000000373,"5","Pre","image47.jpg","Cut_jazz_10.mp3","Both"
4856,"computer","52",982.599999999627,"6","Pre","image1.jpg","Classical_4.mp3","Both"
4856,"computer","53",929.399999999441,"5","Pre","image12.jpg","Classical_2.mp3","Music"
4856,"computer","54",899.200000000186,"7","Pre","image20.jpg","Classical_8.mp3","Music"
4856,"computer","55",3069.90000000037,"8","Pre","image10.jpg","Classical_1.mp3","Image"
4856,"computer","56",808.799999999814,"5","Pre","image52.jpg","Cut_jazz_7.mp3","Music"
4856,"computer","57",393.400000000373,"5","Pre","image36.jpg","Cut_jazz_16.mp3","Image"
4856,"computer","4",1838.19999999553,"6","Post","image39.jpg","Cut_jazz_5.mp3","Image"
4856,"computer","5",2372.80000000447,"5","Post","image15.jpg","Cut_jazz_19.mp3","Music"
4856,"computer","6",825.10000000149,"8","Post","image20.jpg","Classical_1.mp3","Image"
4856,"computer","7",1762.5,"7","Post","image33.jpg","Classical_19.mp3","Music"
4856,"computer","8",948.29999999702,"8","Post","image15.jpg","Cut_jazz_16.mp3","Both"
4856,"computer","9",413.40000000596,"4","Post","image33.jpg","Cut_jazz_2.mp3","Both"
4856,"computer","10",713.60000000149,"8","Post","image20.jpg","Classical_2.mp3","Both"
4856,"computer","11",818.10000000149,"7","Post","image5.jpg","Classical_8.mp3","Music"
4856,"computer","12",584.39999999851,"8","Post","image3.jpg","Classical_4.mp3","Image"
4856,"computer","13",874,"8","Post","image2.jpg","Classical_2.mp3","Image"
4856,"computer","14",513,"5","Post","image1.jpg","Classical_17.mp3","Image"
4856,"computer","15",746.59999999404,"3","Post","image39.jpg","Cut_jazz_10.mp3","Music"
4856,"computer","16",644.39999999851,"6","Post","image35.jpg","Classical_19.mp3","Both"
4856,"computer","17",691.10000000149,"7","Post","image20.jpg","Classical_4.mp3","Music"
4856,"computer","18",214.79999999702,"7","Post","image3.jpg","Classical_2.mp3","Music"
4856,"computer","19",390,"7","Post","image4.jpg","Cut_jazz_7.mp3","Music"
4856,"computer","20",955.20000000298,"7","Post","image52.jpg","Classical_8.mp3","Image"
4856,"computer","21",2511.69999999553,"6","Post","image34.jpg","Classical_19.mp3","Image"
4856,"computer","22",2764.60000000149,"6","Post","image14.jpg","Cut_jazz_14.mp3","Music"
4856,"computer","23",2923,"3","Post","image33.jpg","Cut_jazz_1.mp3","Image"
4856,"computer","24",1898.20000000298,"7","Post","image52.jpg","Classical_7.mp3","Music"
4856,"computer","25",714.30000000447,"9","Post","image2.jpg","Classical_1.mp3","Music"
4856,"computer","26",581.59999999404,"9","Post","image12.jpg","Classical_17.mp3","Music"
4856,"computer","27",1069.89999999851,"5","Post","image10.jpg","Classical_18.mp3","Music"
4856,"computer","28",503.20000000298,"6","Post","image47.jpg","Classical_6.mp3","Music"
4856,"computer","29",1781.80000000447,"7","Post","image14.jpg","Cut_jazz_19.mp3","Both"
4856,"computer","30",959.59999999404,"6","Post","image34.jpg","Cut_jazz_2.mp3","Music"
4856,"computer","31",984.10000000149,"8","Post","image17.jpg","Cut_jazz_19.mp3","Image"
4856,"computer","32",1205.29999999702,"6","Post","image4.jpg","Cut_jazz_10.mp3","Image"
4856,"computer","33",812.20000000298,"6","Post","image47.jpg","Classical_7.mp3","Image"
4856,"computer","34",582.20000000298,"4","Post","image36.jpg","Cut_jazz_7.mp3","Image"
4856,"computer","35",645.29999999702,"6","Post","image2.jpg","Classical_4.mp3","Both"
4856,"computer","36",1368.5,"6","Post","image14.jpg","Cut_jazz_16.mp3","Image"
4856,"computer","37",816.69999999553,"8","Post","image15.jpg","Cut_jazz_14.mp3","Image"
4856,"computer","38",1033.30000000447,"5","Post","image12.jpg","Classical_15.mp3","Both"
4856,"computer","39",1394.10000000149,"6","Post","image1.jpg","Classical_18.mp3","Both"
4856,"computer","40",3947.5,"6","Post","image36.jpg","Cut_jazz_5.mp3","Music"
4856,"computer","41",880.29999999702,"7","Post","image52.jpg","Classical_6.mp3","Both"
4856,"computer","42",600.29999999702,"4","Post","image10.jpg","Classical_15.mp3","Image"
4856,"computer","43",853.20000000298,"6","Post","image34.jpg","Cut_jazz_1.mp3","Both"
4856,"computer","44",1632.69999999553,"5","Post","image35.jpg","Cut_jazz_2.mp3","Image"
4856,"computer","45",2045.09999999404,"7","Post","image39.jpg","Cut_jazz_7.mp3","Both"
4856,"computer","46",1310.70000000298,"6","Post","image35.jpg","Cut_jazz_1.mp3","Music"
4856,"computer","47",520.70000000298,"8","Post","image5.jpg","Classical_7.mp3","Both"
4856,"computer","48",259.79999999702,"6","Post","image3.jpg","Classical_1.mp3","Both"
4856,"computer","49",308.10000000149,"8","Post","image17.jpg","Cut_jazz_14.mp3","Both"
4856,"computer","50",142.90000000596,"5","Post","image5.jpg","Classical_6.mp3","Image"
4856,"computer","51",569.89999999851,"5","Post","image1.jpg","Classical_15.mp3","Music"
4856,"computer","52",680.89999999851,"4","Post","image10.jpg","Classical_17.mp3","Both"
4856,"computer","53",1242.39999999851,"8","Post","image12.jpg","Classical_18.mp3","Image"
4856,"computer","54",1167.59999999404,"5","Post","image4.jpg","Cut_jazz_5.mp3","Both"
4856,"computer","55",866.10000000149,"7","Post","image36.jpg","Cut_jazz_10.mp3","Both"
4856,"computer","56",573.20000000298,"8","Post","image47.jpg","Classical_8.mp3","Both"
4856,"computer","57",3102.80000000447,"6","Post","image17.jpg","Cut_jazz_16.mp3","Music"
4769,"computer","4",913.600000023842,"3","Pre","image1.jpg","Classical_2.mp3","Image"
4769,"computer","5",2570.80000007153,"4","Pre","image47.jpg","Cut_jazz_7.mp3","Image"
4769,"computer","6",1344.30000007153,"6","Pre","image3.jpg","Classical_6.mp3","Both"
4769,"computer","7",1357.29999995232,"4","Pre","image33.jpg","Cut_jazz_1.mp3","Image"
4769,"computer","8",1373.19999992847,"4","Pre","image39.jpg","Cut_jazz_16.mp3","Both"
4769,"computer","9",406.100000023842,"4","Pre","image15.jpg","Classical_17.mp3","Both"
4769,"computer","10",4600.10000002384,"4","Pre","image12.jpg","Classical_4.mp3","Image"
4769,"computer","11",1112.29999995232,"4","Pre","image17.jpg","Classical_15.mp3","Both"
4769,"computer","12",645.700000047684,"6","Pre","image47.jpg","Cut_jazz_5.mp3","Music"
4769,"computer","13",482.600000023842,"6","Pre","image36.jpg","Cut_jazz_14.mp3","Music"
4769,"computer","14",662.100000023842,"6","Pre","image15.jpg","Classical_18.mp3","Music"
4769,"computer","15",801.200000047684,"6","Pre","image14.jpg","Classical_17.mp3","Image"
4769,"computer","16",758.800000071526,"6","Pre","image35.jpg","Cut_jazz_2.mp3","Image"
4769,"computer","17",2587.20000004768,"5","Pre","image2.jpg","Classical_7.mp3","Image"
4769,"computer","18",27188.7000000477,"5","Pre","image20.jpg","Classical_6.mp3","Image"
4769,"computer","19",215.899999976158,"5","Pre","image5.jpg","Cut_jazz_7.mp3","Both"
4769,"computer","20",162.700000047684,"5","Pre","image20.jpg","Classical_7.mp3","Both"
4769,"computer","21",657.200000047684,"5","Pre","image33.jpg","Cut_jazz_2.mp3","Both"
4769,"computer","22",390.200000047684,"7","Pre","image12.jpg","Classical_1.mp3","Both"
4769,"computer","23",348.600000023842,"7","Pre","image33.jpg","Classical_19.mp3","Music"
4769,"computer","24",484.799999952316,"7","Pre","image39.jpg","Cut_jazz_14.mp3","Image"
4769,"computer","25",951.300000071526,"7","Pre","image5.jpg","Cut_jazz_10.mp3","Music"
4769,"computer","26",237.100000023842,"7","Pre","image2.jpg","Classical_6.mp3","Music"
4769,"computer","27",960.099999904633,"7","Pre","image3.jpg","Classical_8.mp3","Image"
4769,"computer","28",2534.80000007153,"7","Pre","image36.jpg","Cut_jazz_19.mp3","Both"
4769,"computer","29",859.200000047684,"7","Pre","image17.jpg","Classical_18.mp3","Image"
4769,"computer","30",3061.30000007153,"7","Pre","image52.jpg","Cut_jazz_5.mp3","Both"
4769,"computer","31",552.800000071526,"5","Pre","image35.jpg","Classical_19.mp3","Both"
4769,"computer","32",370.300000071526,"2","Pre","image10.jpg","Classical_2.mp3","Both"
4769,"computer","33",651.399999976158,"3","Pre","image4.jpg","Cut_jazz_16.mp3","Music"
4769,"computer","34",1086.90000009537,"3","Pre","image5.jpg","Cut_jazz_5.mp3","Image"
4769,"computer","35",466.899999976158,"3","Pre","image4.jpg","Cut_jazz_19.mp3","Image"
4769,"computer","36",420.299999952316,"3","Pre","image1.jpg","Classical_1.mp3","Music"
4769,"computer","37",407.5,"3","Pre","image34.jpg","Classical_19.mp3","Image"
4769,"computer","38",407.899999976158,"4","Pre","image52.jpg","Cut_jazz_10.mp3","Image"
4769,"computer","39",397.399999976158,"4","Pre","image3.jpg","Classical_7.mp3","Music"
4769,"computer","40",1539.80000007153,"4","Pre","image14.jpg","Classical_15.mp3","Music"
4769,"computer","41",587.600000023842,"4","Pre","image17.jpg","Classical_17.mp3","Music"
4769,"computer","42",2551.10000002384,"5","Pre","image35.jpg","Cut_jazz_1.mp3","Music"
4769,"computer","43",720.200000047684,"5","Pre","image10.jpg","Classical_4.mp3","Music"
4769,"computer","44",820.299999952316,"5","Pre","image34.jpg","Cut_jazz_1.mp3","Both"
4769,"computer","45",478.399999976158,"5","Pre","image15.jpg","Classical_15.mp3","Image"
4769,"computer","46",739.799999952316,"5","Pre","image39.jpg","Cut_jazz_19.mp3","Music"
4769,"computer","47",1049.89999997616,"5","Pre","image14.jpg","Classical_18.mp3","Both"
4769,"computer","48",92,"5","Pre","image34.jpg","Cut_jazz_2.mp3","Music"
4769,"computer","49",884.100000023842,"5","Pre","image2.jpg","Classical_8.mp3","Both"
4769,"computer","50",446.700000047684,"5","Pre","image4.jpg","Cut_jazz_14.mp3","Both"
4769,"computer","51",1554.5,"5","Pre","image47.jpg","Cut_jazz_10.mp3","Both"
4769,"computer","52",444.100000023842,"5","Pre","image1.jpg","Classical_4.mp3","Both"
4769,"computer","53",3077.89999997616,"5","Pre","image12.jpg","Classical_2.mp3","Music"
4769,"computer","54",1625.5,"5","Pre","image20.jpg","Classical_8.mp3","Music"
4769,"computer","55",150.200000047684,"5","Pre","image10.jpg","Classical_1.mp3","Image"
4769,"computer","56",1326.29999995232,"5","Pre","image52.jpg","Cut_jazz_7.mp3","Music"
4769,"computer","57",560.299999952316,"5","Pre","image36.jpg","Cut_jazz_16.mp3","Image"
4769,"computer","4",2326,"4","Post","image39.jpg","Cut_jazz_5.mp3","Image"
4769,"computer","5",457.5,"4","Post","image15.jpg","Cut_jazz_19.mp3","Music"
4769,"computer","6",273.100000023842,"4","Post","image20.jpg","Classical_1.mp3","Image"
4769,"computer","7",1322.5,"4","Post","image33.jpg","Classical_19.mp3","Music"
4769,"computer","8",1162.79999995232,"4","Post","image15.jpg","Cut_jazz_16.mp3","Both"
4769,"computer","9",1091.10000002384,"4","Post","image33.jpg","Cut_jazz_2.mp3","Both"
4769,"computer","10",4126.29999995232,"4","Post","image20.jpg","Classical_2.mp3","Both"
4769,"computer","11",54.6000000238419,"4","Post","image5.jpg","Classical_8.mp3","Music"
4769,"computer","12",1355.69999992847,"4","Post","image3.jpg","Classical_4.mp3","Image"
4769,"computer","13",539.5,"4","Post","image2.jpg","Classical_2.mp3","Image"
4769,"computer","14",698.699999928474,"4","Post","image1.jpg","Classical_17.mp3","Image"
4769,"computer","15",4610.10000002384,"4","Post","image39.jpg","Cut_jazz_10.mp3","Music"
4769,"computer","16",3930.79999995232,"4","Post","image35.jpg","Classical_19.mp3","Both"
4769,"computer","17",6721.29999995232,"4","Post","image20.jpg","Classical_4.mp3","Music"
4769,"computer","18",4189.39999997616,"4","Post","image3.jpg","Classical_2.mp3","Music"
4769,"computer","19",1721.79999995232,"4","Post","image4.jpg","Cut_jazz_7.mp3","Music"
4769,"computer","20",1144.5,"6","Post","image52.jpg","Classical_8.mp3","Image"
4769,"computer","21",757.200000047684,"6","Post","image34.jpg","Classical_19.mp3","Image"
4769,"computer","22",1448.59999990463,"6","Post","image14.jpg","Cut_jazz_14.mp3","Music"
4769,"computer","23",867.700000047684,"6","Post","image33.jpg","Cut_jazz_1.mp3","Image"
4769,"computer","24",757,"6","Post","image52.jpg","Classical_7.mp3","Music"
4769,"computer","25",764.699999928474,"6","Post","image2.jpg","Classical_1.mp3","Music"
4769,"computer","26",2792.5,"6","Post","image12.jpg","Classical_17.mp3","Music"
4769,"computer","27",1891,"5","Post","image10.jpg","Classical_18.mp3","Music"
4769,"computer","28",293.399999976158,"5","Post","image47.jpg","Classical_6.mp3","Music"
4769,"computer","29",1293,"5","Post","image14.jpg","Cut_jazz_19.mp3","Both"
4769,"computer","30",1996.5,"5","Post","image34.jpg","Cut_jazz_2.mp3","Music"
4769,"computer","31",1077.09999990463,"5","Post","image17.jpg","Cut_jazz_19.mp3","Image"
4769,"computer","32",3497.10000002384,"5","Post","image4.jpg","Cut_jazz_10.mp3","Image"
4769,"computer","33",571.200000047684,"5","Post","image47.jpg","Classical_7.mp3","Image"
4769,"computer","34",1153.29999995232,"5","Post","image36.jpg","Cut_jazz_7.mp3","Image"
4769,"computer","35",2395.09999990463,"5","Post","image2.jpg","Classical_4.mp3","Both"
4769,"computer","36",1985.60000002384,"5","Post","image14.jpg","Cut_jazz_16.mp3","Image"
4769,"computer","37",5690.5,"5","Post","image15.jpg","Cut_jazz_14.mp3","Image"
4769,"computer","38",4841.10000002384,"5","Post","image12.jpg","Classical_15.mp3","Both"
4769,"computer","39",2986.60000002384,"5","Post","image1.jpg","Classical_18.mp3","Both"
4769,"computer","40",1168.79999995232,"5","Post","image36.jpg","Cut_jazz_5.mp3","Music"
4769,"computer","41",2148.60000002384,"5","Post","image52.jpg","Classical_6.mp3","Both"
4769,"computer","42",2041.29999995232,"5","Post","image10.jpg","Classical_15.mp3","Image"
4769,"computer","43",1980.90000009537,"5","Post","image34.jpg","Cut_jazz_1.mp3","Both"
4769,"computer","44",282.200000047684,"5","Post","image35.jpg","Cut_jazz_2.mp3","Image"
4769,"computer","45",2881,"5","Post","image39.jpg","Cut_jazz_7.mp3","Both"
4769,"computer","46",1773.70000004768,"5","Post","image35.jpg","Cut_jazz_1.mp3","Music"
4769,"computer","47",4026.29999995232,"5","Post","image5.jpg","Classical_7.mp3","Both"
4769,"computer","48",934.600000023842,"5","Post","image3.jpg","Classical_1.mp3","Both"
4769,"computer","49",3638.39999997616,"5","Post","image17.jpg","Cut_jazz_14.mp3","Both"
4769,"computer","50",636.5,"5","Post","image5.jpg","Classical_6.mp3","Image"
4769,"computer","51",2963.29999995232,"5","Post","image1.jpg","Classical_15.mp3","Music"
4769,"computer","52",1026.19999992847,"4","Post","image10.jpg","Classical_17.mp3","Both"
4769,"computer","53",3047.70000004768,"4","Post","image12.jpg","Classical_18.mp3","Image"
4769,"computer","54",461.199999928474,"4","Post","image4.jpg","Cut_jazz_5.mp3","Both"
4769,"computer","55",1309.10000002384,"4","Post","image36.jpg","Cut_jazz_10.mp3","Both"
4769,"computer","56",6657.39999997616,"4","Post","image47.jpg","Classical_8.mp3","Both"
4769,"computer","57",552.299999952316,"4","Post","image17.jpg","Cut_jazz_16.mp3","Music"
4888,"computer","4",1303.90000009537,"2","Post","image47.jpg","Cut_jazz_10.mp3","Both"
4888,"computer","5",921.5,"7","Post","image12.jpg","Cut_jazz_16.mp3","Music"
4888,"computer","6",1780.70000004768,"5","Post","image36.jpg","Classical_4.mp3","Both"
4888,"computer","7",2848.90000009537,"5","Post","image17.jpg","Cut_jazz_2.mp3","Image"
4888,"computer","8",1657.30000019073,"6","Post","image39.jpg","Classical_1.mp3","Image"
4888,"computer","9",1184.20000004768,"6","Post","image10.jpg","Cut_jazz_19.mp3","Music"
4888,"computer","10",1080.5,"4","Post","image15.jpg","Classical_19.mp3","Image"
4888,"computer","11",1008.89999985695,"5","Post","image10.jpg","Cut_jazz_16.mp3","Both"
4888,"computer","12",1145,"7","Post","image3.jpg","Classical_7.mp3","Music"
4888,"computer","13",686.400000095367,"8","Post","image4.jpg","Classical_4.mp3","Image"
4888,"computer","14",845.799999952316,"8","Post","image12.jpg","Cut_jazz_14.mp3","Both"
4888,"computer","15",1964.09999990463,"7","Post","image14.jpg","Cut_jazz_2.mp3","Both"
4888,"computer","16",648.800000190735,"7","Post","image39.jpg","Classical_2.mp3","Both"
4888,"computer","17",1055.09999990463,"6","Post","image1.jpg","Cut_jazz_19.mp3","Both"
4888,"computer","18",1383.29999995232,"3","Post","image33.jpg","Classical_18.mp3","Both"
4888,"computer","19",707,"1","Post","image20.jpg","Classical_8.mp3","Music"
4888,"computer","20",664,"9","Post","image2.jpg","Classical_6.mp3","Music"
4888,"computer","21",1351.60000014305,"3","Post","image33.jpg","Classical_17.mp3","Image"
4888,"computer","22",491.300000190735,"8","Post","image12.jpg","Cut_jazz_19.mp3","Image"
4888,"computer","23",851.199999809265,"7","Post","image10.jpg","Cut_jazz_14.mp3","Image"
4888,"computer","24",1047.5,"7","Post","image36.jpg","Classical_1.mp3","Music"
4888,"computer","25",660.5,"8","Post","image14.jpg","Classical_19.mp3","Music"
4888,"computer","26",764.5,"1","Post","image47.jpg","Cut_jazz_7.mp3","Image"
4888,"computer","27",1265.20000004768,"5","Post","image35.jpg","Classical_15.mp3","Both"
4888,"computer","28",747.099999904633,"7","Post","image3.jpg","Classical_8.mp3","Image"
4888,"computer","29",829.299999952316,"6","Post","image15.jpg","Cut_jazz_1.mp3","Both"
4888,"computer","30",1009,"3","Post","image52.jpg","Cut_jazz_5.mp3","Both"
4888,"computer","31",1067.5,"6","Post","image15.jpg","Cut_jazz_2.mp3","Music"
4888,"computer","32",774,"5","Post","image5.jpg","Cut_jazz_5.mp3","Image"
4888,"computer","33",1225,"4","Post","image20.jpg","Classical_6.mp3","Image"
4888,"computer","34",1063,"6","Post","image39.jpg","Classical_4.mp3","Music"
4888,"computer","35",1096.39999985695,"6","Post","image1.jpg","Cut_jazz_14.mp3","Music"
4888,"computer","36",928.400000095367,"1","Post","image2.jpg","Classical_8.mp3","Both"
4888,"computer","37",233.400000095367,"8","Post","image5.jpg","Cut_jazz_7.mp3","Both"
4888,"computer","38",1351.20000004768,"6","Post","image3.jpg","Classical_6.mp3","Both"
4888,"computer","39",1321,"3","Post","image52.jpg","Cut_jazz_10.mp3","Image"
4888,"computer","40",934.700000047684,"4","Post","image35.jpg","Classical_17.mp3","Music"
4888,"computer","41",2051.29999995232,"4","Post","image4.jpg","Classical_2.mp3","Music"
4888,"computer","42",710.5,"7","Post","image17.jpg","Classical_19.mp3","Both"
4888,"computer","43",807.200000047684,"1","Post","image34.jpg","Classical_15.mp3","Image"
4888,"computer","44",1216.70000004768,"4","Post","image1.jpg","Cut_jazz_16.mp3","Image"
4888,"computer","45",573.200000047684,"6","Post","image20.jpg","Classical_7.mp3","Both"
4888,"computer","46",703,"2","Post","image47.jpg","Cut_jazz_5.mp3","Music"
4888,"computer","47",836.799999952316,"2","Post","image35.jpg","Classical_18.mp3","Image"
4888,"computer","48",611.799999952316,"3","Post","image36.jpg","Classical_2.mp3","Image"
4888,"computer","49",3420.70000004768,"3","Post","image17.jpg","Cut_jazz_1.mp3","Music"
4888,"computer","50",3315.90000009537,"4","Post","image5.jpg","Cut_jazz_10.mp3","Music"
4888,"computer","51",1178.59999990463,"3","Post","image2.jpg","Classical_7.mp3","Image"
4888,"computer","52",1560.29999995232,"8","Post","image4.jpg","Classical_1.mp3","Both"
4888,"computer","53",1806.40000009537,"4","Post","image52.jpg","Cut_jazz_7.mp3","Music"
4888,"computer","54",660.399999856949,"6","Post","image14.jpg","Cut_jazz_1.mp3","Image"
4888,"computer","55",646.599999904633,"1","Post","image33.jpg","Classical_15.mp3","Music"
4888,"computer","56",543.200000047684,"1","Post","image34.jpg","Classical_17.mp3","Both"
4888,"computer","57",1210.80000019073,"2","Post","image34.jpg","Classical_18.mp3","Music"
4888,"computer","4",2539.10000014305,"2","Pre","image47.jpg","Classical_1.mp3","Music"
4888,"computer","5",1018,"5","Pre","image10.jpg","Cut_jazz_7.mp3","Both"
4888,"computer","6",649.199999809265,"2","Pre","image1.jpg","Cut_jazz_10.mp3","Both"
4888,"computer","7",1048.79999995232,"4","Pre","image39.jpg","Cut_jazz_14.mp3","Image"
4888,"computer","8",1273.29999995232,"3","Pre","image2.jpg","Cut_jazz_1.mp3","Image"
4888,"computer","9",929.400000095367,"6","Pre","image14.jpg","Classical_17.mp3","Image"
4888,"computer","10",1361.79999995232,"4","Pre","image35.jpg","Classical_7.mp3","Music"
4888,"computer","11",2007.70000004768,"7","Pre","image3.jpg","Cut_jazz_1.mp3","Music"
4888,"computer","12",981.599999904633,"5","Pre","image5.jpg","Classical_2.mp3","Both"
4888,"computer","13",809.200000047684,"4","Pre","image20.jpg","Classical_19.mp3","Image"
4888,"computer","14",1232.29999995232,"4","Pre","image1.jpg","Cut_jazz_5.mp3","Music"
4888,"computer","15",933.099999904633,"2","Pre","image52.jpg","Classical_2.mp3","Music"
4888,"computer","16",1127,"6","Pre","image36.jpg","Cut_jazz_14.mp3","Music"
4888,"computer","17",729.700000047684,"7","Pre","image3.jpg","Cut_jazz_2.mp3","Image"
4888,"computer","18",1536.20000004768,"7","Pre","image12.jpg","Cut_jazz_7.mp3","Music"
4888,"computer","19",1105.10000014305,"6","Pre","image10.jpg","Cut_jazz_5.mp3","Image"
4888,"computer","20",1182.30000019073,"2","Pre","image5.jpg","Classical_4.mp3","Music"
4888,"computer","21",1460,"3","Pre","image10.jpg","Cut_jazz_10.mp3","Music"
4888,"computer","22",1640.39999985695,"6","Pre","image33.jpg","Classical_7.mp3","Image"
4888,"computer","23",863.5,"4","Pre","image52.jpg","Classical_1.mp3","Both"
4888,"computer","24",662.200000047684,"9","Pre","image12.jpg","Cut_jazz_5.mp3","Both"
4888,"computer","25",1035.39999985695,"7","Pre","image14.jpg","Classical_18.mp3","Both"
4888,"computer","26",1065.89999985695,"5","Pre","image36.jpg","Cut_jazz_19.mp3","Both"
4888,"computer","27",1507.79999995232,"7","Pre","image3.jpg","Classical_19.mp3","Both"
4888,"computer","28",850.400000095367,"4","Pre","image35.jpg","Classical_6.mp3","Both"
4888,"computer","29",940.799999952316,"9","Pre","image4.jpg","Cut_jazz_19.mp3","Image"
4888,"computer","30",1050,"6","Pre","image15.jpg","Classical_17.mp3","Both"
4888,"computer","31",1110.5,"3","Pre","image20.jpg","Cut_jazz_1.mp3","Both"
4888,"computer","32",1794.89999985695,"5","Pre","image39.jpg","Cut_jazz_16.mp3","Both"
4888,"computer","33",2423.59999990463,"4","Pre","image17.jpg","Classical_18.mp3","Image"
4888,"computer","34",3820.09999990463,"5","Pre","image33.jpg","Classical_6.mp3","Music"
4888,"computer","35",10499.4000000954,"3","Pre","image14.jpg","Classical_15.mp3","Music"
4888,"computer","36",816.799999952316,"3","Pre","image35.jpg","Classical_8.mp3","Image"
4888,"computer","37",865.099999904633,"9","Pre","image4.jpg","Cut_jazz_14.mp3","Both"
4888,"computer","38",602.5,"3","Pre","image52.jpg","Classical_4.mp3","Image"
4888,"computer","39",712.799999952316,"7","Pre","image20.jpg","Cut_jazz_2.mp3","Music"
4888,"computer","40",989.599999904633,"1","Pre","image33.jpg","Classical_8.mp3","Both"
4888,"computer","41",2549.20000004768,"5","Pre","image2.jpg","Classical_19.mp3","Music"
4888,"computer","42",886.5,"2","Pre","image34.jpg","Classical_7.mp3","Both"
4888,"computer","43",765,"5","Pre","image5.jpg","Classical_1.mp3","Image"
4888,"computer","44",1607.40000009537,"1","Pre","image47.jpg","Classical_2.mp3","Image"
4888,"computer","45",853.900000095367,"5","Pre","image15.jpg","Classical_15.mp3","Image"
4888,"computer","46",750.899999856949,"1","Pre","image34.jpg","Classical_6.mp3","Image"
4888,"computer","47",680.400000095367,"9","Pre","image12.jpg","Cut_jazz_10.mp3","Image"
4888,"computer","48",1967.09999990463,"5","Pre","image2.jpg","Cut_jazz_2.mp3","Both"
4888,"computer","49",610.199999809265,"9","Pre","image4.jpg","Cut_jazz_16.mp3","Music"
4888,"computer","50",1728.59999990463,"6","Pre","image17.jpg","Classical_15.mp3","Both"
4888,"computer","51",549.700000047684,"5","Pre","image1.jpg","Cut_jazz_7.mp3","Image"
4888,"computer","52",644.299999952316,"3","Pre","image15.jpg","Classical_18.mp3","Music"
4888,"computer","53",689.199999809265,"7","Pre","image17.jpg","Classical_17.mp3","Music"
4888,"computer","54",612.399999856949,"1","Pre","image47.jpg","Classical_4.mp3","Both"
4888,"computer","55",4223.29999995232,"5","Pre","image34.jpg","Classical_8.mp3","Music"
4888,"computer","56",6297.70000004768,"3","Pre","image36.jpg","Cut_jazz_16.mp3","Image"
4888,"computer","57",809.100000143051,"7","Pre","image39.jpg","Cut_jazz_19.mp3","Music"
4821,"computer","4",2485.90000000596,"4","Post","image47.jpg","Cut_jazz_10.mp3","Both"
4821,"computer","5",3202.09999999404,"6","Post","image12.jpg","Cut_jazz_16.mp3","Music"
4821,"computer","6",1151.40000000596,"6","Post","image36.jpg","Classical_4.mp3","Both"
4821,"computer","7",2338.80000001192,"6","Post","image17.jpg","Cut_jazz_2.mp3","Image"
4821,"computer","8",5517.90000000596,"7","Post","image39.jpg","Classical_1.mp3","Image"
4821,"computer","9",2461.19999998808,"6","Post","image10.jpg","Cut_jazz_19.mp3","Music"
4821,"computer","10",1426.69999998808,"1","Post","image15.jpg","Classical_19.mp3","Image"
4821,"computer","11",1421.29999998212,"7","Post","image10.jpg","Cut_jazz_16.mp3","Both"
4821,"computer","12",2066.10000002384,"8","Post","image3.jpg","Classical_7.mp3","Music"
4821,"computer","13",792.90000000596,"1","Post","image4.jpg","Classical_4.mp3","Image"
4821,"computer","14",1678.29999998212,"2","Post","image12.jpg","Cut_jazz_14.mp3","Both"
4821,"computer","15",1918.29999998212,"3","Post","image14.jpg","Cut_jazz_2.mp3","Both"
4821,"computer","16",2703.59999999404,"7","Post","image39.jpg","Classical_2.mp3","Both"
4821,"computer","17",2784,"1","Post","image1.jpg","Cut_jazz_19.mp3","Both"
4821,"computer","18",3833.30000001192,"3","Post","image33.jpg","Classical_18.mp3","Both"
4821,"computer","19",1156.59999999404,"8","Post","image20.jpg","Classical_8.mp3","Music"
4821,"computer","20",2537.09999999404,"7","Post","image2.jpg","Classical_6.mp3","Music"
4821,"computer","21",1866.5,"4","Post","image33.jpg","Classical_17.mp3","Image"
4821,"computer","22",584.100000023842,"1","Post","image12.jpg","Cut_jazz_19.mp3","Image"
4821,"computer","23",5093.90000000596,"6","Post","image10.jpg","Cut_jazz_14.mp3","Image"
4821,"computer","24",1538.80000001192,"5","Post","image36.jpg","Classical_1.mp3","Music"
4821,"computer","25",1140.60000002384,"2","Post","image14.jpg","Classical_19.mp3","Music"
4821,"computer","26",5266.19999998808,"4","Post","image47.jpg","Cut_jazz_7.mp3","Image"
4821,"computer","27",2231.40000000596,"5","Post","image35.jpg","Classical_15.mp3","Both"
4821,"computer","28",2146.59999999404,"8","Post","image3.jpg","Classical_8.mp3","Image"
4821,"computer","29",2557.5,"3","Post","image15.jpg","Cut_jazz_1.mp3","Both"
4821,"computer","30",3714.90000000596,"5","Post","image52.jpg","Cut_jazz_5.mp3","Both"
4821,"computer","31",4945,"4","Post","image15.jpg","Cut_jazz_2.mp3","Music"
4821,"computer","32",2018.69999998808,"7","Post","image5.jpg","Cut_jazz_5.mp3","Image"
4821,"computer","33",604.59999999404,"9","Post","image20.jpg","Classical_6.mp3","Image"
4821,"computer","34",1862.09999999404,"6","Post","image39.jpg","Classical_4.mp3","Music"
4821,"computer","35",2273.59999999404,"5","Post","image1.jpg","Cut_jazz_14.mp3","Music"
4821,"computer","36",4798.09999999404,"6","Post","image2.jpg","Classical_8.mp3","Both"
4821,"computer","37",5101.5,"5","Post","image5.jpg","Cut_jazz_7.mp3","Both"
4821,"computer","38",3203.90000000596,"9","Post","image3.jpg","Classical_6.mp3","Both"
4821,"computer","39",1579.30000001192,"7","Post","image52.jpg","Cut_jazz_10.mp3","Image"
4821,"computer","40",2830.40000000596,"8","Post","image35.jpg","Classical_17.mp3","Music"
4821,"computer","41",1943.80000001192,"4","Post","image4.jpg","Classical_2.mp3","Music"
4821,"computer","42",4251.59999999404,"6","Post","image17.jpg","Classical_19.mp3","Both"
4821,"computer","43",5182.29999998212,"3","Post","image34.jpg","Classical_15.mp3","Image"
4821,"computer","44",563,"1","Post","image1.jpg","Cut_jazz_16.mp3","Image"
4821,"computer","45",881.300000011921,"9","Post","image20.jpg","Classical_7.mp3","Both"
4821,"computer","46",4211.59999999404,"6","Post","image47.jpg","Cut_jazz_5.mp3","Music"
4821,"computer","47",3317.30000001192,"5","Post","image35.jpg","Classical_18.mp3","Image"
4821,"computer","48",2265.39999997616,"4","Post","image36.jpg","Classical_2.mp3","Image"
4821,"computer","49",3080.89999997616,"5","Post","image17.jpg","Cut_jazz_1.mp3","Music"
4821,"computer","50",6037.79999998212,"6","Post","image5.jpg","Cut_jazz_10.mp3","Music"
4821,"computer","51",1583.40000000596,"6","Post","image2.jpg","Classical_7.mp3","Image"
4821,"computer","52",742.90000000596,"1","Post","image4.jpg","Classical_1.mp3","Both"
4821,"computer","53",1097.80000001192,"3","Post","image52.jpg","Cut_jazz_7.mp3","Music"
4821,"computer","54",3939,"4","Post","image14.jpg","Cut_jazz_1.mp3","Image"
4821,"computer","55",2021.5,"5","Post","image33.jpg","Classical_15.mp3","Music"
4821,"computer","56",2992.79999998212,"5","Post","image34.jpg","Classical_17.mp3","Both"
4821,"computer","57",1325.70000001788,"2","Post","image34.jpg","Classical_18.mp3","Music"
4821,"computer","4",2250.09999999404,"6","Pre","image47.jpg","Classical_1.mp3","Music"
4821,"computer","5",2794.09999999404,"7","Pre","image10.jpg","Cut_jazz_7.mp3","Both"
4821,"computer","6",1049.29999998212,"1","Pre","image1.jpg","Cut_jazz_10.mp3","Both"
4821,"computer","7",2327.59999999404,"6","Pre","image39.jpg","Cut_jazz_14.mp3","Image"
4821,"computer","8",3251.09999999404,"6","Pre","image2.jpg","Cut_jazz_1.mp3","Image"
4821,"computer","9",3916.70000001788,"4","Pre","image14.jpg","Classical_17.mp3","Image"
4821,"computer","10",1180.5,"7","Pre","image35.jpg","Classical_7.mp3","Music"
4821,"computer","11",1076.40000000596,"6","Pre","image3.jpg","Cut_jazz_1.mp3","Music"
4821,"computer","12",7518.09999999404,"5","Pre","image5.jpg","Classical_2.mp3","Both"
4821,"computer","13",1955,"7","Pre","image20.jpg","Classical_19.mp3","Image"
4821,"computer","14",1094.09999999404,"2","Pre","image1.jpg","Cut_jazz_5.mp3","Music"
4821,"computer","15",1609.59999999404,"6","Pre","image52.jpg","Classical_2.mp3","Music"
4821,"computer","16",2143,"4","Pre","image36.jpg","Cut_jazz_14.mp3","Music"
4821,"computer","17",1286.20000001788,"8","Pre","image3.jpg","Cut_jazz_2.mp3","Image"
4821,"computer","18",2839.59999999404,"2","Pre","image12.jpg","Cut_jazz_7.mp3","Music"
4821,"computer","19",7728.80000001192,"7","Pre","image10.jpg","Cut_jazz_5.mp3","Image"
4821,"computer","20",2042,"6","Pre","image5.jpg","Classical_4.mp3","Music"
4821,"computer","21",1667.69999998808,"5","Pre","image10.jpg","Cut_jazz_10.mp3","Music"
4821,"computer","22",8749.59999999404,"5","Pre","image33.jpg","Classical_7.mp3","Image"
4821,"computer","23",1376.29999998212,"7","Pre","image52.jpg","Classical_1.mp3","Both"
4821,"computer","24",941.40000000596,"1","Pre","image12.jpg","Cut_jazz_5.mp3","Both"
4821,"computer","25",903.800000011921,"3","Pre","image14.jpg","Classical_18.mp3","Both"
4821,"computer","26",2894,"4","Pre","image36.jpg","Cut_jazz_19.mp3","Both"
4821,"computer","27",837.90000000596,"9","Pre","image3.jpg","Classical_19.mp3","Both"
4821,"computer","28",1696.70000001788,"6","Pre","image35.jpg","Classical_6.mp3","Both"
4821,"computer","29",3734,"1","Pre","image4.jpg","Cut_jazz_19.mp3","Image"
4821,"computer","30",1101.30000001192,"1","Pre","image15.jpg","Classical_17.mp3","Both"
4821,"computer","31",1367.59999999404,"6","Pre","image20.jpg","Cut_jazz_1.mp3","Both"
4821,"computer","32",2585.09999999404,"6","Pre","image39.jpg","Cut_jazz_16.mp3","Both"
4821,"computer","33",4697.60000002384,"7","Pre","image17.jpg","Classical_18.mp3","Image"
4821,"computer","34",15360.599999994,"5","Pre","image33.jpg","Classical_6.mp3","Music"
4821,"computer","35",8134.29999998212,"5","Pre","image14.jpg","Classical_15.mp3","Music"
4821,"computer","36",1454.5,"6","Pre","image35.jpg","Classical_8.mp3","Image"
4821,"computer","37",926.299999982119,"1","Pre","image4.jpg","Cut_jazz_14.mp3","Both"
4821,"computer","38",2536.19999998808,"6","Pre","image52.jpg","Classical_4.mp3","Image"
4821,"computer","39",3016.30000001192,"6","Pre","image20.jpg","Cut_jazz_2.mp3","Music"
4821,"computer","40",4818.30000001192,"7","Pre","image33.jpg","Classical_8.mp3","Both"
4821,"computer","41",5469.80000001192,"7","Pre","image2.jpg","Classical_19.mp3","Music"
4821,"computer","42",10320.5,"6","Pre","image34.jpg","Classical_7.mp3","Both"
4821,"computer","43",1821.79999998212,"8","Pre","image5.jpg","Classical_1.mp3","Image"
4821,"computer","44",2378.09999999404,"7","Pre","image47.jpg","Classical_2.mp3","Image"
4821,"computer","45",1534.70000001788,"1","Pre","image15.jpg","Classical_15.mp3","Image"
4821,"computer","46",2416.70000001788,"4","Pre","image34.jpg","Classical_6.mp3","Image"
4821,"computer","47",704.90000000596,"1","Pre","image12.jpg","Cut_jazz_10.mp3","Image"
4821,"computer","48",10029,"4","Pre","image2.jpg","Cut_jazz_2.mp3","Both"
4821,"computer","49",2938.19999998808,"3","Pre","image4.jpg","Cut_jazz_16.mp3","Music"
4821,"computer","50",2104.29999998212,"7","Pre","image17.jpg","Classical_15.mp3","Both"
4821,"computer","51",1091.29999998212,"1","Pre","image1.jpg","Cut_jazz_7.mp3","Image"
4821,"computer","52",7104.20000001788,"3","Pre","image15.jpg","Classical_18.mp3","Music"
4821,"computer","53",8480,"7","Pre","image17.jpg","Classical_17.mp3","Music"
4821,"computer","54",2625,"7","Pre","image47.jpg","Classical_4.mp3","Both"
4821,"computer","55",4213.59999999404,"4","Pre","image34.jpg","Classical_8.mp3","Music"
4821,"computer","56",4032.80000001192,"4","Pre","image36.jpg","Cut_jazz_16.mp3","Image"
4821,"computer","57",1209.80000001192,"5","Pre","image39.jpg","Cut_jazz_19.mp3","Music"
4861,"computer","4",2943.7999997139,"3","Post","image47.jpg","Cut_jazz_10.mp3","Both"
4861,"computer","5",1390.19999980927,"7","Post","image12.jpg","Cut_jazz_16.mp3","Music"
4861,"computer","6",947.900000095367,"4","Post","image36.jpg","Classical_4.mp3","Both"
4861,"computer","7",1324.5,"7","Post","image17.jpg","Cut_jazz_2.mp3","Image"
4861,"computer","8",1741.59999990463,"7","Post","image39.jpg","Classical_1.mp3","Image"
4861,"computer","9",4892.59999990463,"6","Post","image10.jpg","Cut_jazz_19.mp3","Music"
4861,"computer","10",1276.7999997139,"4","Post","image15.jpg","Classical_19.mp3","Image"
4861,"computer","11",1214.7000002861,"4","Post","image10.jpg","Cut_jazz_16.mp3","Both"
4861,"computer","12",24437.0999999046,"7","Post","image3.jpg","Classical_7.mp3","Music"
4861,"computer","13",2239.7999997139,"4","Post","image4.jpg","Classical_4.mp3","Image"
4861,"computer","14",4623.30000019073,"6","Post","image12.jpg","Cut_jazz_14.mp3","Both"
4861,"computer","15",1213.19999980927,"6","Post","image14.jpg","Cut_jazz_2.mp3","Both"
4861,"computer","16",922.199999809265,"7","Post","image39.jpg","Classical_2.mp3","Both"
4861,"computer","17",1285.5,"6","Post","image1.jpg","Cut_jazz_19.mp3","Both"
4861,"computer","18",3338.80000019073,"5","Post","image33.jpg","Classical_18.mp3","Both"
4861,"computer","19",1824.59999990463,"7","Post","image20.jpg","Classical_8.mp3","Music"
4861,"computer","20",2301.7000002861,"6","Post","image2.jpg","Classical_6.mp3","Music"
4861,"computer","21",1656.60000038147,"5","Post","image33.jpg","Classical_17.mp3","Image"
4861,"computer","22",1764.39999961853,"6","Post","image12.jpg","Cut_jazz_19.mp3","Image"
4861,"computer","23",2323.2999997139,"4","Post","image10.jpg","Cut_jazz_14.mp3","Image"
4861,"computer","24",3537.59999990463,"6","Post","image36.jpg","Classical_1.mp3","Music"
4861,"computer","25",981,"8","Post","image14.jpg","Classical_19.mp3","Music"
4861,"computer","26",2300.7000002861,"5","Post","image47.jpg","Cut_jazz_7.mp3","Image"
4861,"computer","27",4903.09999990463,"5","Post","image35.jpg","Classical_15.mp3","Both"
4861,"computer","28",1812.40000009537,"7","Post","image3.jpg","Classical_8.mp3","Image"
4861,"computer","29",2091.40000009537,"3","Post","image15.jpg","Cut_jazz_1.mp3","Both"
4861,"computer","30",4897.40000009537,"4","Post","image52.jpg","Cut_jazz_5.mp3","Both"
4861,"computer","31",2094,"8","Post","image15.jpg","Cut_jazz_2.mp3","Music"
4861,"computer","32",1103.69999980927,"6","Post","image5.jpg","Cut_jazz_5.mp3","Image"
4861,"computer","33",3179.09999990463,"8","Post","image20.jpg","Classical_6.mp3","Image"
4861,"computer","34",1195.5,"6","Post","image39.jpg","Classical_4.mp3","Music"
4861,"computer","35",1103.2999997139,"7","Post","image1.jpg","Cut_jazz_14.mp3","Music"
4861,"computer","36",1112.2999997139,"8","Post","image2.jpg","Classical_8.mp3","Both"
4861,"computer","37",1421.90000009537,"6","Post","image5.jpg","Cut_jazz_7.mp3","Both"
4861,"computer","38",1252,"7","Post","image3.jpg","Classical_6.mp3","Both"
4861,"computer","39",2520.69999980927,"7","Post","image52.jpg","Cut_jazz_10.mp3","Image"
4861,"computer","40",27205.8000001907,"6","Post","image35.jpg","Classical_17.mp3","Music"
4861,"computer","41",1609.59999990463,"7","Post","image4.jpg","Classical_2.mp3","Music"
4861,"computer","42",1839.10000038147,"7","Post","image17.jpg","Classical_19.mp3","Both"
4861,"computer","43",1111.90000009537,"4","Post","image34.jpg","Classical_15.mp3","Image"
4861,"computer","44",1173.69999980927,"4","Post","image1.jpg","Cut_jazz_16.mp3","Image"
4861,"computer","45",1574.69999980927,"8","Post","image20.jpg","Classical_7.mp3","Both"
4861,"computer","46",933.5,"6","Post","image47.jpg","Cut_jazz_5.mp3","Music"
4861,"computer","47",1527.09999990463,"4","Post","image35.jpg","Classical_18.mp3","Image"
4861,"computer","48",1984.10000038147,"4","Post","image36.jpg","Classical_2.mp3","Image"
4861,"computer","49",3022.90000009537,"5","Post","image17.jpg","Cut_jazz_1.mp3","Music"
4861,"computer","50",3411.19999980927,"6","Post","image5.jpg","Cut_jazz_10.mp3","Music"
4861,"computer","51",958.099999904633,"7","Post","image2.jpg","Classical_7.mp3","Image"
4861,"computer","52",24676.5,"6","Post","image4.jpg","Classical_1.mp3","Both"
4861,"computer","53",1071.09999990463,"8","Post","image52.jpg","Cut_jazz_7.mp3","Music"
4861,"computer","54",1153.5,"6","Post","image14.jpg","Cut_jazz_1.mp3","Image"
4861,"computer","55",3205.80000019073,"6","Post","image33.jpg","Classical_15.mp3","Music"
4861,"computer","56",2635.90000009537,"4","Post","image34.jpg","Classical_17.mp3","Both"
4861,"computer","57",1553,"6","Post","image34.jpg","Classical_18.mp3","Music"
4861,"computer","4",1208.7999997139,"7","Pre","image47.jpg","Classical_1.mp3","Music"
4861,"computer","5",7049.30000019073,"4","Pre","image10.jpg","Cut_jazz_7.mp3","Both"
4861,"computer","6",6253.69999980927,"5","Pre","image1.jpg","Cut_jazz_10.mp3","Both"
4861,"computer","7",1023.10000038147,"7","Pre","image39.jpg","Cut_jazz_14.mp3","Image"
4861,"computer","8",1306.09999990463,"7","Pre","image2.jpg","Cut_jazz_1.mp3","Image"
4861,"computer","9",1697.40000009537,"6","Pre","image14.jpg","Classical_17.mp3","Image"
4861,"computer","10",1684.30000019073,"7","Pre","image35.jpg","Classical_7.mp3","Music"
4861,"computer","11",2883.89999961853,"4","Pre","image3.jpg","Cut_jazz_1.mp3","Music"
4861,"computer","12",1125.39999961853,"7","Pre","image5.jpg","Classical_2.mp3","Both"
4861,"computer","13",2384.69999980927,"7","Pre","image20.jpg","Classical_19.mp3","Image"
4861,"computer","14",2045.59999990463,"4","Pre","image1.jpg","Cut_jazz_5.mp3","Music"
4861,"computer","15",3533.59999990463,"7","Pre","image52.jpg","Classical_2.mp3","Music"
4861,"computer","16",2038.30000019073,"6","Pre","image36.jpg","Cut_jazz_14.mp3","Music"
4861,"computer","17",1352.59999990463,"7","Pre","image3.jpg","Cut_jazz_2.mp3","Image"
4861,"computer","18",1031.80000019073,"7","Pre","image12.jpg","Cut_jazz_7.mp3","Music"
4861,"computer","19",3784.39999961853,"6","Pre","image10.jpg","Cut_jazz_5.mp3","Image"
4861,"computer","20",3397.39999961853,"7","Pre","image5.jpg","Classical_4.mp3","Music"
4861,"computer","21",2284.7999997139,"4","Pre","image10.jpg","Cut_jazz_10.mp3","Music"
4861,"computer","22",32100.4000000954,"4","Pre","image33.jpg","Classical_7.mp3","Image"
4861,"computer","23",2046.2000002861,"7","Pre","image52.jpg","Classical_1.mp3","Both"
4861,"computer","24",1443.09999990463,"5","Pre","image12.jpg","Cut_jazz_5.mp3","Both"
4861,"computer","25",8729.5,"6","Pre","image14.jpg","Classical_18.mp3","Both"
4861,"computer","26",2040.09999990463,"4","Pre","image36.jpg","Cut_jazz_19.mp3","Both"
4861,"computer","27",1441.5,"6","Pre","image3.jpg","Classical_19.mp3","Both"
4861,"computer","28",1826,"5","Pre","image35.jpg","Classical_6.mp3","Both"
4861,"computer","29",1421.19999980927,"4","Pre","image4.jpg","Cut_jazz_19.mp3","Image"
4861,"computer","30",2420.7999997139,"4","Pre","image15.jpg","Classical_17.mp3","Both"
4861,"computer","31",2583.09999990463,"6","Pre","image20.jpg","Cut_jazz_1.mp3","Both"
4861,"computer","32",2654,"6","Pre","image39.jpg","Cut_jazz_16.mp3","Both"
4861,"computer","33",1105,"7","Pre","image17.jpg","Classical_18.mp3","Image"
4861,"computer","34",30476.3000001907,"5","Pre","image33.jpg","Classical_6.mp3","Music"
4861,"computer","35",917.5,"7","Pre","image14.jpg","Classical_15.mp3","Music"
4861,"computer","36",941.300000190735,"4","Pre","image35.jpg","Classical_8.mp3","Image"
4861,"computer","37",1408,"4","Pre","image4.jpg","Cut_jazz_14.mp3","Both"
4861,"computer","38",1577.40000009537,"6","Pre","image52.jpg","Classical_4.mp3","Image"
4861,"computer","39",1288.80000019073,"6","Pre","image20.jpg","Cut_jazz_2.mp3","Music"
4861,"computer","40",1100,"4","Pre","image33.jpg","Classical_8.mp3","Both"
4861,"computer","41",2458.2999997139,"7","Pre","image2.jpg","Classical_19.mp3","Music"
4861,"computer","42",1205.40000009537,"7","Pre","image34.jpg","Classical_7.mp3","Both"
4861,"computer","43",818.299999713898,"7","Pre","image5.jpg","Classical_1.mp3","Image"
4861,"computer","44",2372,"4","Pre","image47.jpg","Classical_2.mp3","Image"
4861,"computer","45",983.900000095367,"4","Pre","image15.jpg","Classical_15.mp3","Image"
4861,"computer","46",1966.90000009537,"4","Pre","image34.jpg","Classical_6.mp3","Image"
4861,"computer","47",2280.59999990463,"5","Pre","image12.jpg","Cut_jazz_10.mp3","Image"
4861,"computer","48",1118.5,"6","Pre","image2.jpg","Cut_jazz_2.mp3","Both"
4861,"computer","49",1648.09999990463,"3","Pre","image4.jpg","Cut_jazz_16.mp3","Music"
4861,"computer","50",1374.10000038147,"6","Pre","image17.jpg","Classical_15.mp3","Both"
4861,"computer","51",2007.90000009537,"5","Pre","image1.jpg","Cut_jazz_7.mp3","Image"
4861,"computer","52",2965.5,"4","Pre","image15.jpg","Classical_18.mp3","Music"
4861,"computer","53",2638.5,"7","Pre","image17.jpg","Classical_17.mp3","Music"
4861,"computer","54",4500.40000009537,"5","Pre","image47.jpg","Classical_4.mp3","Both"
4861,"computer","55",1154.19999980927,"6","Pre","image34.jpg","Classical_8.mp3","Music"
4861,"computer","56",1383.5,"3","Pre","image36.jpg","Cut_jazz_16.mp3","Image"
4861,"computer","57",3018.2999997139,"5","Pre","image39.jpg","Cut_jazz_19.mp3","Music"
4843,"computer","4",5725.90000000037,"4","Pre","image14.jpg","Classical_6.mp3","Music"
4843,"computer","5",1034.39999999944,"4","Pre","image33.jpg","Classical_15.mp3","Music"
4843,"computer","6",1613.89999999944,"5","Pre","image15.jpg","Classical_8.mp3","Music"
4843,"computer","7",1404.90000000037,"3","Pre","image1.jpg","Cut_jazz_19.mp3","Both"
4843,"computer","8",2457,"3","Pre","image52.jpg","Classical_4.mp3","Image"
4843,"computer","9",1320.40000000037,"4","Pre","image39.jpg","Cut_jazz_1.mp3","Both"
4843,"computer","10",1500.89999999944,"6","Pre","image47.jpg","Classical_1.mp3","Music"
4843,"computer","11",3800.59999999963,"5","Pre","image4.jpg","Cut_jazz_2.mp3","Image"
4843,"computer","12",1390.70000000019,"4","Pre","image2.jpg","Cut_jazz_10.mp3","Both"
4843,"computer","13",1349.29999999981,"1","Pre","image4.jpg","Classical_19.mp3","Both"
4843,"computer","14",3053.70000000019,"5","Pre","image34.jpg","Classical_15.mp3","Image"
4843,"computer","15",1579.39999999944,"8","Pre","image39.jpg","Classical_19.mp3","Image"
4843,"computer","16",3290.10000000056,"7","Pre","image15.jpg","Classical_7.mp3","Both"
4843,"computer","17",8805.10000000056,"7","Pre","image1.jpg","Cut_jazz_14.mp3","Music"
4843,"computer","18",3339.29999999981,"4","Pre","image20.jpg","Cut_jazz_7.mp3","Both"
4843,"computer","19",4982.5,"6","Pre","image36.jpg","Classical_19.mp3","Music"
4843,"computer","20",2694.59999999963,"4","Pre","image15.jpg","Classical_6.mp3","Image"
4843,"computer","21",2035.79999999981,"7","Pre","image34.jpg","Classical_18.mp3","Music"
4843,"computer","22",1157.29999999981,"8","Pre","image5.jpg","Classical_1.mp3","Image"
4843,"computer","23",2126.79999999981,"7","Pre","image3.jpg","Cut_jazz_10.mp3","Image"
4843,"computer","24",1412,"6","Pre","image47.jpg","Classical_4.mp3","Both"
4843,"computer","25",1377.59999999963,"9","Pre","image17.jpg","Classical_7.mp3","Music"
4843,"computer","26",1658.5,"4","Pre","image2.jpg","Cut_jazz_5.mp3","Music"
4843,"computer","27",1075.90000000037,"8","Pre","image35.jpg","Classical_17.mp3","Music"
4843,"computer","28",2442,"3","Pre","image10.jpg","Cut_jazz_19.mp3","Music"
4843,"computer","29",2336.79999999981,"6","Pre","image34.jpg","Classical_17.mp3","Both"
4843,"computer","30",1061.39999999944,"5","Pre","image35.jpg","Classical_18.mp3","Image"
4843,"computer","31",1689,"7","Pre","image12.jpg","Cut_jazz_14.mp3","Both"
4843,"computer","32",975.200000000186,"6","Pre","image5.jpg","Classical_4.mp3","Music"
4843,"computer","33",1138.29999999981,"9","Pre","image35.jpg","Classical_15.mp3","Both"
4843,"computer","34",3024.29999999981,"4","Pre","image17.jpg","Classical_8.mp3","Image"
4843,"computer","35",1437.10000000056,"6","Pre","image2.jpg","Cut_jazz_7.mp3","Image"
4843,"computer","36",2748.79999999981,"7","Pre","image10.jpg","Cut_jazz_14.mp3","Image"
4843,"computer","37",3714.09999999963,"6","Pre","image33.jpg","Classical_18.mp3","Both"
4843,"computer","38",2867.70000000019,"5","Pre","image17.jpg","Classical_6.mp3","Both"
4843,"computer","39",1090.20000000019,"4","Pre","image52.jpg","Classical_1.mp3","Both"
4843,"computer","40",2095.29999999981,"4","Pre","image12.jpg","Cut_jazz_16.mp3","Music"
4843,"computer","41",1761.29999999981,"4","Pre","image4.jpg","Cut_jazz_1.mp3","Music"
4843,"computer","42",1813.20000000019,"4","Pre","image5.jpg","Classical_2.mp3","Both"
4843,"computer","43",1099.5,"5","Pre","image39.jpg","Cut_jazz_2.mp3","Music"
4843,"computer","44",617,"4","Pre","image52.jpg","Classical_2.mp3","Music"
4843,"computer","45",1690.59999999963,"9","Pre","image14.jpg","Classical_7.mp3","Image"
4843,"computer","46",989.900000000373,"1","Pre","image3.jpg","Cut_jazz_5.mp3","Both"
4843,"computer","47",1563.20000000019,"3","Pre","image33.jpg","Classical_17.mp3","Image"
4843,"computer","48",1339.90000000037,"9","Pre","image14.jpg","Classical_8.mp3","Both"
4843,"computer","49",1090.70000000019,"6","Pre","image20.jpg","Cut_jazz_10.mp3","Music"
4843,"computer","50",1438.80000000075,"2","Pre","image47.jpg","Classical_2.mp3","Image"
4843,"computer","51",1354.79999999981,"4","Pre","image3.jpg","Cut_jazz_7.mp3","Music"
4843,"computer","52",4048.70000000019,"6","Pre","image10.jpg","Cut_jazz_16.mp3","Both"
4843,"computer","53",1335.59999999963,"4","Pre","image12.jpg","Cut_jazz_19.mp3","Image"
4843,"computer","54",2553.89999999944,"3","Pre","image36.jpg","Cut_jazz_2.mp3","Both"
4843,"computer","55",2034.09999999963,"6","Pre","image20.jpg","Cut_jazz_5.mp3","Image"
4843,"computer","56",658.799999999814,"6","Pre","image36.jpg","Cut_jazz_1.mp3","Image"
4843,"computer","57",1409.09999999963,"2","Pre","image1.jpg","Cut_jazz_16.mp3","Image"
4843,"computer","4",1602.70000000019,"8","Post","image14.jpg","Classical_17.mp3","Image"
4843,"computer","5",902.599999999627,"7","Post","image36.jpg","Cut_jazz_14.mp3","Music"
4843,"computer","6",966.299999999814,"3","Post","image39.jpg","Cut_jazz_19.mp3","Music"
4843,"computer","7",1137.79999999981,"7","Post","image15.jpg","Classical_17.mp3","Both"
4843,"computer","8",857.399999999441,"4","Post","image20.jpg","Cut_jazz_7.mp3","Both"
4843,"computer","9",699.100000000559,"5","Post","image2.jpg","Cut_jazz_10.mp3","Both"
4843,"computer","10",1629.19999999925,"6","Post","image5.jpg","Classical_4.mp3","Music"
4843,"computer","11",980.600000000559,"7","Post","image35.jpg","Cut_jazz_1.mp3","Music"
4843,"computer","12",1438.5,"4","Post","image4.jpg","Cut_jazz_19.mp3","Image"
4843,"computer","13",1116,"9","Post","image14.jpg","Classical_18.mp3","Both"
4843,"computer","14",3198,"7","Post","image39.jpg","Cut_jazz_16.mp3","Both"
4843,"computer","15",795.299999999814,"5","Post","image20.jpg","Cut_jazz_10.mp3","Music"
4843,"computer","16",835,"5","Post","image36.jpg","Cut_jazz_19.mp3","Both"
4843,"computer","17",1298.29999999981,"4","Post","image15.jpg","Classical_15.mp3","Image"
4843,"computer","18",1045.79999999981,"4","Post","image52.jpg","Classical_4.mp3","Image"
4843,"computer","19",1169.69999999925,"7","Post","image33.jpg","Classical_19.mp3","Music"
4843,"computer","20",727.100000000559,"8","Post","image3.jpg","Cut_jazz_10.mp3","Image"
4843,"computer","21",739.799999999814,"3","Post","image34.jpg","Cut_jazz_1.mp3","Both"
4843,"computer","22",733.700000000186,"6","Post","image4.jpg","Cut_jazz_14.mp3","Both"
4843,"computer","23",1474.5,"8","Post","image12.jpg","Classical_8.mp3","Image"
4843,"computer","24",1127.70000000019,"3","Post","image2.jpg","Cut_jazz_5.mp3","Music"
4843,"computer","25",1551.20000000019,"4","Post","image10.jpg","Classical_6.mp3","Image"
4843,"computer","26",755.099999999627,"2","Post","image1.jpg","Classical_7.mp3","Image"
4843,"computer","27",773.5,"5","Post","image33.jpg","Cut_jazz_1.mp3","Image"
4843,"computer","28",1801.80000000075,"6","Post","image12.jpg","Classical_6.mp3","Both"
4843,"computer","29",874.799999999814,"7","Post","image36.jpg","Cut_jazz_16.mp3","Image"
4843,"computer","30",1168.40000000037,"7","Post","image17.jpg","Classical_18.mp3","Image"
4843,"computer","31",659.299999999814,"8","Post","image14.jpg","Classical_15.mp3","Music"
4843,"computer","32",724.200000000186,"3","Post","image34.jpg","Classical_19.mp3","Image"
4843,"computer","33",1222.09999999963,"4","Post","image1.jpg","Classical_6.mp3","Music"
4843,"computer","34",1135.5,"7","Post","image5.jpg","Classical_2.mp3","Both"
4843,"computer","35",1191.90000000037,"5","Post","image47.jpg","Classical_4.mp3","Both"
4843,"computer","36",1023.29999999981,"7","Post","image15.jpg","Classical_18.mp3","Music"
4843,"computer","37",1193.5,"4","Post","image3.jpg","Cut_jazz_7.mp3","Music"
4843,"computer","38",792.299999999814,"5","Post","image47.jpg","Classical_1.mp3","Music"
4843,"computer","39",531.099999999627,"3","Post","image34.jpg","Cut_jazz_2.mp3","Music"
4843,"computer","40",720.100000000559,"9","Post","image10.jpg","Classical_8.mp3","Music"
4843,"computer","41",3813.79999999981,"7","Post","image17.jpg","Classical_17.mp3","Music"
4843,"computer","42",1109.29999999981,"4","Post","image33.jpg","Cut_jazz_2.mp3","Both"
4843,"computer","43",2247.90000000037,"6","Post","image39.jpg","Cut_jazz_14.mp3","Image"
4843,"computer","44",1215.60000000056,"6","Post","image20.jpg","Cut_jazz_5.mp3","Image"
4843,"computer","45",1777.5,"5","Post","image4.jpg","Cut_jazz_16.mp3","Music"
4843,"computer","46",1037.29999999981,"8","Post","image5.jpg","Classical_1.mp3","Image"
4843,"computer","47",414.900000000373,"9","Post","image35.jpg","Classical_19.mp3","Both"
4843,"computer","48",917.199999999255,"4","Post","image52.jpg","Classical_1.mp3","Both"
4843,"computer","49",1054.70000000019,"7","Post","image10.jpg","Classical_7.mp3","Both"
4843,"computer","50",838.799999999814,"2","Post","image52.jpg","Classical_2.mp3","Music"
4843,"computer","51",1791.10000000056,"6","Post","image1.jpg","Classical_8.mp3","Both"
4843,"computer","52",796.400000000373,"3","Post","image2.jpg","Cut_jazz_7.mp3","Image"
4843,"computer","53",1593.20000000019,"5","Post","image35.jpg","Cut_jazz_2.mp3","Image"
4843,"computer","54",758.700000000186,"6","Post","image17.jpg","Classical_15.mp3","Both"
4843,"computer","55",776.799999999814,"5","Post","image3.jpg","Cut_jazz_5.mp3","Both"
4843,"computer","56",842.099999999627,"4","Post","image47.jpg","Classical_2.mp3","Image"
4843,"computer","57",1138.29999999981,"9","Post","image12.jpg","Classical_7.mp3","Music"
4875,"computer","4",2423.40000009537,"7","Pre","image14.jpg","Classical_6.mp3","Music"
4875,"computer","5",2642.79999995232,"6","Pre","image33.jpg","Classical_15.mp3","Music"
4875,"computer","6",1655.09999990463,"7","Pre","image15.jpg","Classical_8.mp3","Music"
4875,"computer","7",1742.70000004768,"4","Pre","image1.jpg","Cut_jazz_19.mp3","Both"
4875,"computer","8",1515.29999995232,"5","Pre","image52.jpg","Classical_4.mp3","Image"
4875,"computer","9",20090.7999999523,"6","Pre","image39.jpg","Cut_jazz_1.mp3","Both"
4875,"computer","10",1832.29999995232,"7","Pre","image47.jpg","Classical_1.mp3","Music"
4875,"computer","11",1667,"6","Pre","image4.jpg","Cut_jazz_2.mp3","Image"
4875,"computer","12",1543.5,"4","Pre","image2.jpg","Cut_jazz_10.mp3","Both"
4875,"computer","13",1647.09999990463,"7","Pre","image4.jpg","Classical_19.mp3","Both"
4875,"computer","14",2180,"4","Pre","image34.jpg","Classical_15.mp3","Image"
4875,"computer","15",1557,"8","Pre","image39.jpg","Classical_19.mp3","Image"
4875,"computer","16",1344,"7","Pre","image15.jpg","Classical_7.mp3","Both"
4875,"computer","17",1097.10000014305,"3","Pre","image1.jpg","Cut_jazz_14.mp3","Music"
4875,"computer","18",1193.09999990463,"6","Pre","image20.jpg","Cut_jazz_7.mp3","Both"
4875,"computer","19",1751.79999995232,"4","Pre","image36.jpg","Classical_19.mp3","Music"
4875,"computer","20",1564.09999990463,"7","Pre","image15.jpg","Classical_6.mp3","Image"
4875,"computer","21",1790.59999990463,"7","Pre","image34.jpg","Classical_18.mp3","Music"
4875,"computer","22",3270.40000009537,"8","Pre","image5.jpg","Classical_1.mp3","Image"
4875,"computer","23",1205.20000004768,"6","Pre","image3.jpg","Cut_jazz_10.mp3","Image"
